{
  "resourceType": "Bundle",
  "id": "77da0c45-9266-4cd5-988d-420a73593219",
  "meta": {
    "versionId": "1",
    "lastUpdated": "2025-03-03T19:52:24.037+00:00",
    "profile": [ "http://hl7.org/fhir/us/ecr/StructureDefinition/eicr-measurereport-bundle" ]
  },
  "type": "message",
  "timestamp": "2025-03-03T19:52:24.037+00:00",
  "entry": [ {
    "fullUrl": "http://ecr.drajer.com/secure/fhir-r4/fhir/MessageHeader/2d79fbfa-5d2b-419b-8b22-461ebb7797cd",
    "resource": {
      "resourceType": "MessageHeader",
      "id": "2d79fbfa-5d2b-419b-8b22-461ebb7797cd",
      "meta": {
        "versionId": "1",
        "lastUpdated": "2025-03-03T19:52:24.206+00:00",
        "profile": [ "http://hl7.org/fhir/us/ecr/StructureDefinition/us-ph-messageheader" ]
      },
      "extension": [ {
        "url": "http://hl7.org/fhir/us/ecr/StructureDefinition/us-ph-message-processing-category-extension",
        "valueString": "notification"
      } ],
      "eventCoding": {
        "system": "http://hl7.org/fhir/us/ecr/CodeSystem/us-ph-message-types-codesystem",
        "code": "eicr-case-report-message"
      },
      "source": {
        "endpoint": "http://ecr.drajer.com/secure/fhir-r4/fhir"
      },
      "reason": {
        "coding": [ {
          "system": "http://hl7.org/fhir/us/ecr/CodeSystem/us-ph-triggerdefinition-namedevents",
          "code": "encounter-end"
        } ]
      },
      "focus": [ {
        "reference": "Bundle/eicr-report-DepressionScreeningandFollowUp"
      } ]
    }
  }, {
    "resource": {
      "resourceType": "Bundle",
      "id": "eicr-report-DepressionScreeningandFollowUp",
      "meta": {
        "versionId": "1",
        "lastUpdated": "2025-03-03T19:52:24.037+00:00",
        "profile": [ "http://hl7.org/fhir/us/ecr/StructureDefinition/eicr-document-bundle" ]
      },
      "identifier": {
        "system": "urn:ietf:rfc:3986",
        "value": "d40740ac-3191-4b33-ba1a-46a91dfb7721"
      },
      "type": "document",
      "timestamp": "2025-03-03T19:52:24.037+00:00",
      "entry": [ {
        "fullUrl": "http://ecr.drajer.com/secure/fhir-r4/fhir/Composition/11150d43-4e57-4552-a182-4404b64db1bf",
        "resource": {
          "resourceType": "Composition",
          "id": "11150d43-4e57-4552-a182-4404b64db1bf",
          "meta": {
            "versionId": "1",
            "lastUpdated": "2025-03-03T19:52:24.135+00:00",
            "profile": [ "http://hl7.org/fhir/us/ecr/StructureDefinition/eicr-composition" ]
          },
          "extension": [ {
            "url": "http://hl7.org/fhir/StructureDefinition/composition-clinicaldocument-versionNumber",
            "valueString": "1"
          } ],
          "identifier": {
            "value": "11150d43-4e57-4552-a182-4404b64db1bf"
          },
          "status": "final",
          "type": {
            "coding": [ {
              "system": "http://loinc.org",
              "code": "55751-2",
              "display": "Public Health Case Report"
            } ],
            "text": "Public Health Case Report"
          },
          "subject": {
            "reference": "http://ecr.drajer.com/secure/fhir-r4/fhir/Patient/4a103c45-9743-40c6-9861-e2220336fbfa"
          },
          "encounter": {
            "reference": "http://ecr.drajer.com/secure/fhir-r4/fhir/Encounter/f8863dc8-0102-4436-8d1b-4263c64b49e1"
          },
          "date": "2025-03-03T19:52:24+00:00",
          "title": "Public Health Case Report",
          "section": [ {
            "code": {
              "coding": [ {
                "system": "http://loinc.org",
                "code": "29299-5",
                "display": "Reason For Visit Narrative"
              } ],
              "text": "Reason For Visit Narrative"
            },
            "text": {
              "status": "additional",
              "div": "<div xmlns=\"http://www.w3.org/1999/xhtml\">No Reason for Visit Information</div>"
            }
          }, {
            "code": {
              "coding": [ {
                "system": "http://loinc.org",
                "code": "10154-3",
                "display": "Chief complaint Narrative"
              } ],
              "text": "Chief complaint Narrative"
            },
            "text": {
              "status": "additional",
              "div": "<div xmlns=\"http://www.w3.org/1999/xhtml\">No Chief Complaint Information</div>"
            }
          }, {
            "code": {
              "coding": [ {
                "system": "http://loinc.org",
                "code": "10164-2",
                "display": "History of Present illness Narrative"
              } ],
              "text": "History of Present illness Narrative"
            },
            "text": {
              "status": "additional",
              "div": "<div xmlns=\"http://www.w3.org/1999/xhtml\">No Narrative Information</div>"
            }
          }, {
            "code": {
              "coding": [ {
                "system": "http://loinc.org",
                "code": "10187-3",
                "display": "Review of Systems narrative"
              } ],
              "text": "Review of Systems narrative"
            },
            "text": {
              "status": "additional",
              "div": "<div xmlns=\"http://www.w3.org/1999/xhtml\">No Narrative Information</div>"
            }
          }, {
            "code": {
              "coding": [ {
                "system": "http://loinc.org",
                "code": "11450-4",
                "display": "Problem list - Reported"
              } ],
              "text": "Problem list - Reported"
            }
          }, {
            "code": {
              "coding": [ {
                "system": "http://loinc.org",
                "code": "11348-0",
                "display": "Past Medical History Narrative"
              } ],
              "text": "Past Medical History Narrative"
            },
            "text": {
              "status": "additional",
              "div": "<div xmlns=\"http://www.w3.org/1999/xhtml\">No Narrative Information</div>"
            }
          }, {
            "code": {
              "coding": [ {
                "system": "http://loinc.org",
                "code": "42346-7",
                "display": "Medications on admission (narrative)"
              } ],
              "text": "Medications on admission (narrative)"
            },
            "text": {
              "status": "additional",
              "div": "<div xmlns=\"http://www.w3.org/1999/xhtml\">No Narrative Information</div>"
            }
          }, {
            "code": {
              "coding": [ {
                "system": "http://loinc.org",
                "code": "29549-3",
                "display": "Medication administered Narrative"
              } ],
              "text": "Medication administered Narrative"
            }
          }, {
            "code": {
              "coding": [ {
                "system": "http://loinc.org",
                "code": "10160-0",
                "display": "History of Medication use Narrative"
              } ],
              "text": "History of Medication use Narrative"
            }
          }, {
            "code": {
              "coding": [ {
                "system": "http://loinc.org",
                "code": "30954-2",
                "display": "Relevant diagnostic tests/laboratory data Narrative"
              } ],
              "text": "Relevant diagnostic tests/laboratory data Narrative"
            }
          }, {
            "code": {
              "coding": [ {
                "system": "http://loinc.org",
                "code": "18776-5",
                "display": "Plan of care note"
              } ],
              "text": "Plan of care note"
            },
            "text": {
              "status": "additional",
              "div": "<div xmlns=\"http://www.w3.org/1999/xhtml\">No Text Elements found in resources to generate narrative</div>"
            },
            "entry": [ {
              "reference": "http://ecr.drajer.com/secure/fhir-r4/fhir/ServiceRequest/138c50fe-d29f-4cc5-96dd-1b26dddfa56a"
            } ]
          }, {
            "code": {
              "coding": [ {
                "system": "http://loinc.org",
                "code": "11369-6",
                "display": "History of Immunization Narrative"
              } ],
              "text": "History of Immunization Narrative"
            }
          }, {
            "code": {
              "coding": [ {
                "system": "http://loinc.org",
                "code": "47519-4",
                "display": "History of Procedures Document"
              } ],
              "text": "History of Procedures Document"
            }
          }, {
            "code": {
              "coding": [ {
                "system": "http://loinc.org",
                "code": "8716-3",
                "display": "Vital signs"
              } ],
              "text": "Vital signs"
            }
          }, {
            "code": {
              "coding": [ {
                "system": "http://loinc.org",
                "code": "29762-2",
                "display": "Social History Narrative"
              } ],
              "text": "Social History Narrative"
            }
          }, {
            "code": {
              "coding": [ {
                "system": "http://loinc.org",
                "code": "90767-5",
                "display": "Pregnancy Section Narrative"
              } ],
              "text": "Pregnancy Section Narrative"
            }
          }, {
            "code": {
              "coding": [ {
                "system": "http://loinc.org",
                "code": "83910-0",
                "display": "Emergency Outbreak Section Narrative"
              } ],
              "text": "Emergency Outbreak Section Narrative"
            },
            "text": {
              "status": "additional",
              "div": "<div xmlns=\"http://www.w3.org/1999/xhtml\">No Narrative Information</div>"
            }
          } ]
        }
      }, {
        "fullUrl": "http://ecr.drajer.com/secure/fhir-r4/fhir/Patient/4a103c45-9743-40c6-9861-e2220336fbfa",
        "resource": {
          "resourceType": "Patient",
          "id": "4a103c45-9743-40c6-9861-e2220336fbfa",
          "meta": {
            "versionId": "1"
          },
          "extension": [ {
            "url": "http://hl7.org/fhir/us/core/StructureDefinition/us-core-race",
            "extension": [ {
              "url": "ombCategory",
              "valueCoding": {
                "system": "urn:oid:2.16.840.1.113883.6.238",
                "code": "2106-3",
                "display": "White"
              }
            } ]
          }, {
            "url": "http://hl7.org/fhir/us/core/StructureDefinition/us-core-ethnicity",
            "extension": [ {
              "url": "ombCategory",
              "valueCoding": {
                "system": "urn:oid:2.16.840.1.113883.6.238",
                "code": "2186-5",
                "display": "Not Hispanic or Latino"
              }
            } ]
          } ],
          "active": true,
          "name": [ {
            "use": "official",
            "text": "Griffin,Meg",
            "family": "Griffin",
            "given": [ "Meg" ]
          } ],
          "gender": "female",
          "birthDate": "2007-11-16",
          "deceasedBoolean": false
        }
      }, {
        "fullUrl": "http://ecr.drajer.com/secure/fhir-r4/fhir/Encounter/f8863dc8-0102-4436-8d1b-4263c64b49e1",
        "resource": {
          "resourceType": "Encounter",
          "id": "f8863dc8-0102-4436-8d1b-4263c64b49e1",
          "status": "finished",
          "type": [ {
            "coding": [ {
              "system": "http://www.ama-assn.org/go/cpt",
              "version": "2021",
              "code": "99404",
              "display": "Preventive medicine counseling and/or risk factor reduction intervention(s) provided to an individual (separate procedure); approximately 60 minutes"
            } ]
          } ],
          "subject": {
            "reference": "Patient/4a103c45-9743-40c6-9861-e2220336fbfa",
            "display": "Example Patient"
          },
          "period": {
            "start": "2025-02-19T16:00:00-07:00",
            "end": "2025-02-19T18:00:00-07:00"
          }
        }
      }, {
        "fullUrl": "http://ecr.drajer.com/secure/fhir-r4/fhir/ServiceRequest/138c50fe-d29f-4cc5-96dd-1b26dddfa56a",
        "resource": {
          "resourceType": "ServiceRequest",
          "id": "138c50fe-d29f-4cc5-96dd-1b26dddfa56a",
          "meta": {
            "versionId": "1"
          },
          "status": "completed",
          "intent": "order",
          "code": {
            "coding": [ {
              "system": "http://snomed.info/sct",
              "code": "183583007",
              "display": "Refer to mental health worker (procedure)"
            } ]
          },
          "subject": {
            "reference": "Patient/4a103c45-9743-40c6-9861-e2220336fbfa"
          },
          "authoredOn": "2025-02-21T00:00:00+00:00"
        }
      } ]
    }
  }, {
    "resource": {
      "resourceType": "MeasureReport",
      "contained": [ {
        "resourceType": "Observation",
        "id": "7988e191-e99b-42ba-a472-81ed05774565",
        "extension": [ {
          "url": "http://hl7.org/fhir/StructureDefinition/cqf-measureInfo",
          "extension": [ {
            "url": "measure",
            "valueCanonical": "http://hl7.org/fhir/us/chronic-ds/Measure/DepressionScreeningandFollowUp"
          } ]
        } ],
        "status": "final",
        "code": {
          "coding": [ {
            "system": "http://terminology.hl7.org/CodeSystem/measure-data-usage",
            "code": "supplemental-data"
          }, {
            "system": "http://loinc.org",
            "code": "54133-4",
            "display": "Ethnicity"
          } ]
        },
        "valueCodeableConcept": {
          "coding": [ {
            "code": "2186-5"
          } ]
        }
      }, {
        "resourceType": "Observation",
        "id": "0cd40056-45c9-4fbe-aa1b-99a36eecf952",
        "extension": [ {
          "url": "http://hl7.org/fhir/StructureDefinition/cqf-measureInfo",
          "extension": [ {
            "url": "measure",
            "valueCanonical": "http://hl7.org/fhir/us/chronic-ds/Measure/DepressionScreeningandFollowUp"
          } ]
        } ],
        "status": "final",
        "code": {
          "coding": [ {
            "system": "http://terminology.hl7.org/CodeSystem/measure-data-usage",
            "code": "supplemental-data"
          }, {
            "system": "http://loinc.org",
            "code": "32624-9",
            "display": "SDE Race"
          } ]
        },
        "valueCodeableConcept": {
          "coding": [ {
            "code": "2106-3"
          } ]
        }
      }, {
        "resourceType": "Observation",
        "id": "dbc95cff-55a0-42d1-98d0-9073374d1dfe",
        "extension": [ {
          "url": "http://hl7.org/fhir/StructureDefinition/cqf-measureInfo",
          "extension": [ {
            "url": "measure",
            "valueCanonical": "http://hl7.org/fhir/us/chronic-ds/Measure/DepressionScreeningandFollowUp"
          } ]
        } ],
        "status": "final",
        "code": {
          "coding": [ {
            "system": "http://terminology.hl7.org/CodeSystem/measure-data-usage",
            "code": "supplemental-data"
          }, {
            "system": "http://loinc.org",
            "code": "30525-0",
            "display": "Age"
          } ]
        },
        "valueCodeableConcept": {
          "coding": [ {
            "code": "18"
          } ]
        }
      }, {
        "resourceType": "Observation",
        "id": "06e1caf9-85c0-469a-9c7a-e742591d2b28",
        "extension": [ {
          "url": "http://hl7.org/fhir/StructureDefinition/cqf-measureInfo",
          "extension": [ {
            "url": "measure",
            "valueCanonical": "http://hl7.org/fhir/us/chronic-ds/Measure/DepressionScreeningandFollowUp"
          } ]
        } ],
        "status": "final",
        "code": {
          "coding": [ {
            "system": "http://terminology.hl7.org/CodeSystem/measure-data-usage",
            "code": "supplemental-data"
          }, {
            "system": "http://loinc.org",
            "code": "72143-1",
            "display": "Sex [HL7.v3]"
          } ]
        },
        "valueCodeableConcept": {
          "coding": [ {
            "code": "F"
          } ]
        }
      } ],
      "extension": [ {
        "url": "http://hl7.org/fhir/5.0/StructureDefinition/extension-MeasureReport.population.description",
        "valueString": "Percentage of patients aged 12 years and older screened for depression on the date of the encounter or up to 14 days prior to the date of the encounter using an age-appropriate standardized depression screening tool AND if positive, a follow-up plan is documented on the date of or up to two days after the date of the qualifying encounter"
      }, {
        "url": "http://hl7.org/fhir/5.0/StructureDefinition/extension-MeasureReport.supplementalDataElement.reference",
        "valueReference": {
          "extension": [ {
            "url": "http://hl7.org/fhir/us/davinci-deqm/StructureDefinition/extension-criteriaReference",
            "valueString": "sde-age"
          } ],
          "reference": "#dbc95cff-55a0-42d1-98d0-9073374d1dfe"
        }
      }, {
        "url": "http://hl7.org/fhir/5.0/StructureDefinition/extension-MeasureReport.supplementalDataElement.reference",
        "valueReference": {
          "extension": [ {
            "url": "http://hl7.org/fhir/us/davinci-deqm/StructureDefinition/extension-criteriaReference",
            "valueString": "sde-race"
          } ],
          "reference": "#0cd40056-45c9-4fbe-aa1b-99a36eecf952"
        }
      }, {
        "url": "http://hl7.org/fhir/5.0/StructureDefinition/extension-MeasureReport.supplementalDataElement.reference",
        "valueReference": {
          "extension": [ {
            "url": "http://hl7.org/fhir/us/davinci-deqm/StructureDefinition/extension-criteriaReference",
            "valueString": "sde-sex"
          } ],
          "reference": "#06e1caf9-85c0-469a-9c7a-e742591d2b28"
        }
      }, {
        "url": "http://hl7.org/fhir/5.0/StructureDefinition/extension-MeasureReport.supplementalDataElement.reference",
        "valueReference": {
          "extension": [ {
            "url": "http://hl7.org/fhir/us/davinci-deqm/StructureDefinition/extension-criteriaReference",
            "valueString": "sde-ethnicity"
          } ],
          "reference": "#7988e191-e99b-42ba-a472-81ed05774565"
        }
      } ],
      "status": "complete",
      "type": "individual",
      "measure": "http://hl7.org/fhir/us/chronic-ds/Measure/DepressionScreeningandFollowUp|0.0.001",
      "subject": {
        "reference": "Patient/4a103c45-9743-40c6-9861-e2220336fbfa"
      },
      "date": "2025-03-03T19:51:40+00:00",
      "period": {
        "start": "2025-01-01T06:00:00+00:00",
        "end": "2026-01-01T07:59:00+00:00"
      },
      "improvementNotation": {
        "coding": [ {
          "system": "http://terminology.hl7.org/CodeSystem/measure-improvement-notation",
          "code": "increase",
          "display": "Higher score indicates better quality"
        } ]
      },
      "group": [ {
        "extension": [ {
          "url": "http://hl7.org/fhir/us/davinci-deqm/StructureDefinition/extension-cqfm-denominator-membership",
          "valueString": "1"
        }, {
          "url": "http://hl7.org/fhir/us/davinci-deqm/StructureDefinition/extension-cqfm-numerator-membership",
          "valueString": "1"
        } ],
        "population": [ {
          "id": "AD83208C-1313-401E-BB62-ABCCE0982B49",
          "extension": [ {
            "url": "http://hl7.org/fhir/5.0/StructureDefinition/extension-MeasureReport.population.description",
            "valueString": "All patients aged 12 years and older at the beginning of the measurement period with at least one qualifying encounter during the measurement period"
          } ],
          "code": {
            "coding": [ {
              "system": "http://terminology.hl7.org/CodeSystem/measure-population",
              "code": "initial-population",
              "display": "Initial Population"
            } ]
          },
          "count": 1
        }, {
          "id": "696066C7-C558-4849-A325-A3CDDB58CF8F",
          "extension": [ {
            "url": "http://hl7.org/fhir/5.0/StructureDefinition/extension-MeasureReport.population.description",
            "valueString": "All patients aged 12 years and older at the beginning of the measurement period with at least one qualifying encounter during the measurement period"
          } ],
          "code": {
            "coding": [ {
              "system": "http://terminology.hl7.org/CodeSystem/measure-population",
              "code": "denominator",
              "display": "Denominator"
            } ]
          },
          "count": 1
        }, {
          "id": "E2557B71-1B97-413F-BE26-2B037E4D590B",
          "extension": [ {
            "url": "http://hl7.org/fhir/5.0/StructureDefinition/extension-MeasureReport.population.description",
            "valueString": "Patients screened for depression on the date of the encounter or up to 14 days prior to the date of the encounter using an age-appropriate standardized tool AND if positive, a follow-up plan is documented on the date of or up to two days after the date of the qualifying encounter"
          } ],
          "code": {
            "coding": [ {
              "system": "http://terminology.hl7.org/CodeSystem/measure-population",
              "code": "numerator",
              "display": "Numerator"
            } ]
          },
          "count": 1
        }, {
          "id": "E52F7FAE-96D9-417A-8538-6E3DB4A31D7A",
          "extension": [ {
            "url": "http://hl7.org/fhir/5.0/StructureDefinition/extension-MeasureReport.population.description",
            "valueString": "Patients who have ever been diagnosed with bipolar disorder at any time prior to the qualifying encounter"
          } ],
          "code": {
            "coding": [ {
              "system": "http://terminology.hl7.org/CodeSystem/measure-population",
              "code": "denominator-exclusion",
              "display": "Denominator Exclusions"
            } ]
          },
          "count": 0
        }, {
          "id": "FBA7B9D9-8588-4CB2-AB72-642CBD980334",
          "extension": [ {
            "url": "http://hl7.org/fhir/5.0/StructureDefinition/extension-MeasureReport.population.description",
            "valueString": "Patient Reason(s) Patient refuses to participate in or complete the depression screening OR Medical Reason(s) Documentation of medical reason for not screening patient for depression"
          } ],
          "code": {
            "coding": [ {
              "system": "http://terminology.hl7.org/CodeSystem/measure-population",
              "code": "denominator-exception",
              "display": "Denominator Exceptions"
            } ]
          },
          "count": 0
        } ],
        "measureScore": {
          "value": 1.0
        },
        "stratifier": [ {
          "id": "stratifier-ethnicity",
          "extension": [ {
            "url": "http://hl7.org/fhir/5.0/StructureDefinition/extension-MeasureReport.population.description",
            "valueString": "Ethnicity (CDC Value Set)"
          } ],
          "code": [ {
            "coding": [ {
              "system": "http://loinc.org",
              "code": "54133-4",
              "display": "Ethnicity"
            } ]
          } ],
          "stratum": [ {
            "extension": [ {
              "url": "http://hl7.org/fhir/us/davinci-deqm/StructureDefinition/extension-cqfm-denominator-membership",
              "valueString": "0"
            }, {
              "url": "http://hl7.org/fhir/us/davinci-deqm/StructureDefinition/extension-cqfm-numerator-membership",
              "valueString": "0"
            } ],
            "value": {
              "text": "2186-5"
            },
            "population": [ {
              "id": "AD83208C-1313-401E-BB62-ABCCE0982B49",
              "extension": [ {
                "url": "http://hl7.org/fhir/5.0/StructureDefinition/extension-MeasureReport.population.description",
                "valueString": "All patients aged 12 years and older at the beginning of the measurement period with at least one qualifying encounter during the measurement period"
              } ],
              "code": {
                "coding": [ {
                  "system": "http://terminology.hl7.org/CodeSystem/measure-population",
                  "code": "initial-population",
                  "display": "Initial Population"
                } ]
              },
              "count": 0
            }, {
              "id": "696066C7-C558-4849-A325-A3CDDB58CF8F",
              "extension": [ {
                "url": "http://hl7.org/fhir/5.0/StructureDefinition/extension-MeasureReport.population.description",
                "valueString": "All patients aged 12 years and older at the beginning of the measurement period with at least one qualifying encounter during the measurement period"
              } ],
              "code": {
                "coding": [ {
                  "system": "http://terminology.hl7.org/CodeSystem/measure-population",
                  "code": "denominator",
                  "display": "Denominator"
                } ]
              },
              "count": 0
            }, {
              "id": "E2557B71-1B97-413F-BE26-2B037E4D590B",
              "extension": [ {
                "url": "http://hl7.org/fhir/5.0/StructureDefinition/extension-MeasureReport.population.description",
                "valueString": "Patients screened for depression on the date of the encounter or up to 14 days prior to the date of the encounter using an age-appropriate standardized tool AND if positive, a follow-up plan is documented on the date of or up to two days after the date of the qualifying encounter"
              } ],
              "code": {
                "coding": [ {
                  "system": "http://terminology.hl7.org/CodeSystem/measure-population",
                  "code": "numerator",
                  "display": "Numerator"
                } ]
              },
              "count": 0
            }, {
              "id": "E52F7FAE-96D9-417A-8538-6E3DB4A31D7A",
              "extension": [ {
                "url": "http://hl7.org/fhir/5.0/StructureDefinition/extension-MeasureReport.population.description",
                "valueString": "Patients who have ever been diagnosed with bipolar disorder at any time prior to the qualifying encounter"
              } ],
              "code": {
                "coding": [ {
                  "system": "http://terminology.hl7.org/CodeSystem/measure-population",
                  "code": "denominator-exclusion",
                  "display": "Denominator Exclusions"
                } ]
              },
              "count": 0
            }, {
              "id": "FBA7B9D9-8588-4CB2-AB72-642CBD980334",
              "extension": [ {
                "url": "http://hl7.org/fhir/5.0/StructureDefinition/extension-MeasureReport.population.description",
                "valueString": "Patient Reason(s) Patient refuses to participate in or complete the depression screening OR Medical Reason(s) Documentation of medical reason for not screening patient for depression"
              } ],
              "code": {
                "coding": [ {
                  "system": "http://terminology.hl7.org/CodeSystem/measure-population",
                  "code": "denominator-exception",
                  "display": "Denominator Exceptions"
                } ]
              },
              "count": 0
            } ]
          } ]
        }, {
          "id": "stratifier-payer",
          "extension": [ {
            "url": "http://hl7.org/fhir/5.0/StructureDefinition/extension-MeasureReport.population.description",
            "valueString": "Payer"
          } ],
          "code": [ {
            "coding": [ {
              "system": "http://terminology.hl7.org/CodeSystem/coverage-class",
              "code": "plan",
              "display": "SDE Payer"
            } ]
          } ]
        }, {
          "id": "stratifier-race",
          "extension": [ {
            "url": "http://hl7.org/fhir/5.0/StructureDefinition/extension-MeasureReport.population.description",
            "valueString": "Race (CDC Value Set)"
          } ],
          "code": [ {
            "coding": [ {
              "system": "http://loinc.org",
              "code": "32624-9",
              "display": "SDE Race"
            } ]
          } ],
          "stratum": [ {
            "extension": [ {
              "url": "http://hl7.org/fhir/us/davinci-deqm/StructureDefinition/extension-cqfm-denominator-membership",
              "valueString": "0"
            }, {
              "url": "http://hl7.org/fhir/us/davinci-deqm/StructureDefinition/extension-cqfm-numerator-membership",
              "valueString": "0"
            } ],
            "value": {
              "text": "2106-3"
            },
            "population": [ {
              "id": "AD83208C-1313-401E-BB62-ABCCE0982B49",
              "extension": [ {
                "url": "http://hl7.org/fhir/5.0/StructureDefinition/extension-MeasureReport.population.description",
                "valueString": "All patients aged 12 years and older at the beginning of the measurement period with at least one qualifying encounter during the measurement period"
              } ],
              "code": {
                "coding": [ {
                  "system": "http://terminology.hl7.org/CodeSystem/measure-population",
                  "code": "initial-population",
                  "display": "Initial Population"
                } ]
              },
              "count": 0
            }, {
              "id": "696066C7-C558-4849-A325-A3CDDB58CF8F",
              "extension": [ {
                "url": "http://hl7.org/fhir/5.0/StructureDefinition/extension-MeasureReport.population.description",
                "valueString": "All patients aged 12 years and older at the beginning of the measurement period with at least one qualifying encounter during the measurement period"
              } ],
              "code": {
                "coding": [ {
                  "system": "http://terminology.hl7.org/CodeSystem/measure-population",
                  "code": "denominator",
                  "display": "Denominator"
                } ]
              },
              "count": 0
            }, {
              "id": "E2557B71-1B97-413F-BE26-2B037E4D590B",
              "extension": [ {
                "url": "http://hl7.org/fhir/5.0/StructureDefinition/extension-MeasureReport.population.description",
                "valueString": "Patients screened for depression on the date of the encounter or up to 14 days prior to the date of the encounter using an age-appropriate standardized tool AND if positive, a follow-up plan is documented on the date of or up to two days after the date of the qualifying encounter"
              } ],
              "code": {
                "coding": [ {
                  "system": "http://terminology.hl7.org/CodeSystem/measure-population",
                  "code": "numerator",
                  "display": "Numerator"
                } ]
              },
              "count": 0
            }, {
              "id": "E52F7FAE-96D9-417A-8538-6E3DB4A31D7A",
              "extension": [ {
                "url": "http://hl7.org/fhir/5.0/StructureDefinition/extension-MeasureReport.population.description",
                "valueString": "Patients who have ever been diagnosed with bipolar disorder at any time prior to the qualifying encounter"
              } ],
              "code": {
                "coding": [ {
                  "system": "http://terminology.hl7.org/CodeSystem/measure-population",
                  "code": "denominator-exclusion",
                  "display": "Denominator Exclusions"
                } ]
              },
              "count": 0
            }, {
              "id": "FBA7B9D9-8588-4CB2-AB72-642CBD980334",
              "extension": [ {
                "url": "http://hl7.org/fhir/5.0/StructureDefinition/extension-MeasureReport.population.description",
                "valueString": "Patient Reason(s) Patient refuses to participate in or complete the depression screening OR Medical Reason(s) Documentation of medical reason for not screening patient for depression"
              } ],
              "code": {
                "coding": [ {
                  "system": "http://terminology.hl7.org/CodeSystem/measure-population",
                  "code": "denominator-exception",
                  "display": "Denominator Exceptions"
                } ]
              },
              "count": 0
            } ]
          } ]
        }, {
          "id": "stratifier-sex",
          "extension": [ {
            "url": "http://hl7.org/fhir/5.0/StructureDefinition/extension-MeasureReport.population.description",
            "valueString": "Administrative sex"
          } ],
          "code": [ {
            "coding": [ {
              "system": "http://loinc.org",
              "code": "72143-1",
              "display": "Sex [HL7.v3]"
            } ]
          } ],
          "stratum": [ {
            "extension": [ {
              "url": "http://hl7.org/fhir/us/davinci-deqm/StructureDefinition/extension-cqfm-denominator-membership",
              "valueString": "0"
            }, {
              "url": "http://hl7.org/fhir/us/davinci-deqm/StructureDefinition/extension-cqfm-numerator-membership",
              "valueString": "0"
            } ],
            "value": {
              "text": "F"
            },
            "population": [ {
              "id": "AD83208C-1313-401E-BB62-ABCCE0982B49",
              "extension": [ {
                "url": "http://hl7.org/fhir/5.0/StructureDefinition/extension-MeasureReport.population.description",
                "valueString": "All patients aged 12 years and older at the beginning of the measurement period with at least one qualifying encounter during the measurement period"
              } ],
              "code": {
                "coding": [ {
                  "system": "http://terminology.hl7.org/CodeSystem/measure-population",
                  "code": "initial-population",
                  "display": "Initial Population"
                } ]
              },
              "count": 0
            }, {
              "id": "696066C7-C558-4849-A325-A3CDDB58CF8F",
              "extension": [ {
                "url": "http://hl7.org/fhir/5.0/StructureDefinition/extension-MeasureReport.population.description",
                "valueString": "All patients aged 12 years and older at the beginning of the measurement period with at least one qualifying encounter during the measurement period"
              } ],
              "code": {
                "coding": [ {
                  "system": "http://terminology.hl7.org/CodeSystem/measure-population",
                  "code": "denominator",
                  "display": "Denominator"
                } ]
              },
              "count": 0
            }, {
              "id": "E2557B71-1B97-413F-BE26-2B037E4D590B",
              "extension": [ {
                "url": "http://hl7.org/fhir/5.0/StructureDefinition/extension-MeasureReport.population.description",
                "valueString": "Patients screened for depression on the date of the encounter or up to 14 days prior to the date of the encounter using an age-appropriate standardized tool AND if positive, a follow-up plan is documented on the date of or up to two days after the date of the qualifying encounter"
              } ],
              "code": {
                "coding": [ {
                  "system": "http://terminology.hl7.org/CodeSystem/measure-population",
                  "code": "numerator",
                  "display": "Numerator"
                } ]
              },
              "count": 0
            }, {
              "id": "E52F7FAE-96D9-417A-8538-6E3DB4A31D7A",
              "extension": [ {
                "url": "http://hl7.org/fhir/5.0/StructureDefinition/extension-MeasureReport.population.description",
                "valueString": "Patients who have ever been diagnosed with bipolar disorder at any time prior to the qualifying encounter"
              } ],
              "code": {
                "coding": [ {
                  "system": "http://terminology.hl7.org/CodeSystem/measure-population",
                  "code": "denominator-exclusion",
                  "display": "Denominator Exclusions"
                } ]
              },
              "count": 0
            }, {
              "id": "FBA7B9D9-8588-4CB2-AB72-642CBD980334",
              "extension": [ {
                "url": "http://hl7.org/fhir/5.0/StructureDefinition/extension-MeasureReport.population.description",
                "valueString": "Patient Reason(s) Patient refuses to participate in or complete the depression screening OR Medical Reason(s) Documentation of medical reason for not screening patient for depression"
              } ],
              "code": {
                "coding": [ {
                  "system": "http://terminology.hl7.org/CodeSystem/measure-population",
                  "code": "denominator-exception",
                  "display": "Denominator Exceptions"
                } ]
              },
              "count": 0
            } ]
          } ]
        }, {
          "id": "stratifier-age-group",
          "extension": [ {
            "url": "http://hl7.org/fhir/5.0/StructureDefinition/extension-MeasureReport.population.description",
            "valueString": "Age Group"
          } ],
          "code": [ {
            "coding": [ {
              "system": "http://loinc.org",
              "code": "46251-5",
              "display": "Age group"
            } ]
          } ],
          "stratum": [ {
            "extension": [ {
              "url": "http://hl7.org/fhir/us/davinci-deqm/StructureDefinition/extension-cqfm-denominator-membership",
              "valueString": "0"
            }, {
              "url": "http://hl7.org/fhir/us/davinci-deqm/StructureDefinition/extension-cqfm-numerator-membership",
              "valueString": "0"
            } ],
            "value": {
              "text": "P15Y--P19Y"
            },
            "population": [ {
              "id": "AD83208C-1313-401E-BB62-ABCCE0982B49",
              "extension": [ {
                "url": "http://hl7.org/fhir/5.0/StructureDefinition/extension-MeasureReport.population.description",
                "valueString": "All patients aged 12 years and older at the beginning of the measurement period with at least one qualifying encounter during the measurement period"
              } ],
              "code": {
                "coding": [ {
                  "system": "http://terminology.hl7.org/CodeSystem/measure-population",
                  "code": "initial-population",
                  "display": "Initial Population"
                } ]
              },
              "count": 0
            }, {
              "id": "696066C7-C558-4849-A325-A3CDDB58CF8F",
              "extension": [ {
                "url": "http://hl7.org/fhir/5.0/StructureDefinition/extension-MeasureReport.population.description",
                "valueString": "All patients aged 12 years and older at the beginning of the measurement period with at least one qualifying encounter during the measurement period"
              } ],
              "code": {
                "coding": [ {
                  "system": "http://terminology.hl7.org/CodeSystem/measure-population",
                  "code": "denominator",
                  "display": "Denominator"
                } ]
              },
              "count": 0
            }, {
              "id": "E2557B71-1B97-413F-BE26-2B037E4D590B",
              "extension": [ {
                "url": "http://hl7.org/fhir/5.0/StructureDefinition/extension-MeasureReport.population.description",
                "valueString": "Patients screened for depression on the date of the encounter or up to 14 days prior to the date of the encounter using an age-appropriate standardized tool AND if positive, a follow-up plan is documented on the date of or up to two days after the date of the qualifying encounter"
              } ],
              "code": {
                "coding": [ {
                  "system": "http://terminology.hl7.org/CodeSystem/measure-population",
                  "code": "numerator",
                  "display": "Numerator"
                } ]
              },
              "count": 0
            }, {
              "id": "E52F7FAE-96D9-417A-8538-6E3DB4A31D7A",
              "extension": [ {
                "url": "http://hl7.org/fhir/5.0/StructureDefinition/extension-MeasureReport.population.description",
                "valueString": "Patients who have ever been diagnosed with bipolar disorder at any time prior to the qualifying encounter"
              } ],
              "code": {
                "coding": [ {
                  "system": "http://terminology.hl7.org/CodeSystem/measure-population",
                  "code": "denominator-exclusion",
                  "display": "Denominator Exclusions"
                } ]
              },
              "count": 0
            }, {
              "id": "FBA7B9D9-8588-4CB2-AB72-642CBD980334",
              "extension": [ {
                "url": "http://hl7.org/fhir/5.0/StructureDefinition/extension-MeasureReport.population.description",
                "valueString": "Patient Reason(s) Patient refuses to participate in or complete the depression screening OR Medical Reason(s) Documentation of medical reason for not screening patient for depression"
              } ],
              "code": {
                "coding": [ {
                  "system": "http://terminology.hl7.org/CodeSystem/measure-population",
                  "code": "denominator-exception",
                  "display": "Denominator Exceptions"
                } ]
              },
              "count": 0
            } ]
          } ]
        }, {
          "id": "stratifier-state-of-residence",
          "extension": [ {
            "url": "http://hl7.org/fhir/5.0/StructureDefinition/extension-MeasureReport.population.description",
            "valueString": "State of residence"
          } ],
          "code": [ {
            "coding": [ {
              "system": "http://loinc.org",
              "code": "52830-7",
              "display": "State, district or territory federal abbreviation"
            } ]
          } ]
        }, {
          "id": "stratifier-postal-code-of-residence",
          "extension": [ {
            "url": "http://hl7.org/fhir/5.0/StructureDefinition/extension-MeasureReport.population.description",
            "valueString": "Postal code of residence"
          } ],
          "code": [ {
            "coding": [ {
              "system": "http://loinc.org",
              "code": "45401-7",
              "display": "Postal code"
            } ]
          } ]
        }, {
          "id": "stratifier-food-insecurity-risk-status",
          "extension": [ {
            "url": "http://hl7.org/fhir/5.0/StructureDefinition/extension-MeasureReport.population.description",
            "valueString": "Food insecurity risk status"
          } ],
          "code": [ {
            "coding": [ {
              "system": "http://loinc.org",
              "code": "88124-3",
              "display": "Food insecurity risk [HVS]"
            } ]
          } ]
        } ]
      } ],
      "evaluatedResource": [ {
        "extension": [ {
          "url": "http://hl7.org/fhir/us/davinci-deqm/StructureDefinition/extension-criteriaReference",
          "valueString": "AD83208C-1313-401E-BB62-ABCCE0982B49"
        }, {
          "url": "http://hl7.org/fhir/us/davinci-deqm/StructureDefinition/extension-criteriaReference",
          "valueString": "696066C7-C558-4849-A325-A3CDDB58CF8F"
        }, {
          "url": "http://hl7.org/fhir/us/davinci-deqm/StructureDefinition/extension-criteriaReference",
          "valueString": "E2557B71-1B97-413F-BE26-2B037E4D590B"
        }, {
          "url": "http://hl7.org/fhir/us/davinci-deqm/StructureDefinition/extension-criteriaReference",
          "valueString": "E52F7FAE-96D9-417A-8538-6E3DB4A31D7A"
        }, {
          "url": "http://hl7.org/fhir/us/davinci-deqm/StructureDefinition/extension-criteriaReference",
          "valueString": "FBA7B9D9-8588-4CB2-AB72-642CBD980334"
        }, {
          "url": "http://hl7.org/fhir/us/davinci-deqm/StructureDefinition/extension-criteriaReference",
          "valueString": "sde-ethnicity"
        } ],
        "reference": "Encounter/f8863dc8-0102-4436-8d1b-4263c64b49e1"
      }, {
        "extension": [ {
          "url": "http://hl7.org/fhir/us/davinci-deqm/StructureDefinition/extension-criteriaReference",
          "valueString": "AD83208C-1313-401E-BB62-ABCCE0982B49"
        }, {
          "url": "http://hl7.org/fhir/us/davinci-deqm/StructureDefinition/extension-criteriaReference",
          "valueString": "696066C7-C558-4849-A325-A3CDDB58CF8F"
        }, {
          "url": "http://hl7.org/fhir/us/davinci-deqm/StructureDefinition/extension-criteriaReference",
          "valueString": "E2557B71-1B97-413F-BE26-2B037E4D590B"
        }, {
          "url": "http://hl7.org/fhir/us/davinci-deqm/StructureDefinition/extension-criteriaReference",
          "valueString": "E52F7FAE-96D9-417A-8538-6E3DB4A31D7A"
        }, {
          "url": "http://hl7.org/fhir/us/davinci-deqm/StructureDefinition/extension-criteriaReference",
          "valueString": "FBA7B9D9-8588-4CB2-AB72-642CBD980334"
        }, {
          "url": "http://hl7.org/fhir/us/davinci-deqm/StructureDefinition/extension-criteriaReference",
          "valueString": "sde-ethnicity"
        } ],
        "reference": "Observation/82012f98-5e8b-4f27-9b04-d1744231ddaa"
      }, {
        "extension": [ {
          "url": "http://hl7.org/fhir/us/davinci-deqm/StructureDefinition/extension-criteriaReference",
          "valueString": "AD83208C-1313-401E-BB62-ABCCE0982B49"
        }, {
          "url": "http://hl7.org/fhir/us/davinci-deqm/StructureDefinition/extension-criteriaReference",
          "valueString": "696066C7-C558-4849-A325-A3CDDB58CF8F"
        }, {
          "url": "http://hl7.org/fhir/us/davinci-deqm/StructureDefinition/extension-criteriaReference",
          "valueString": "E2557B71-1B97-413F-BE26-2B037E4D590B"
        }, {
          "url": "http://hl7.org/fhir/us/davinci-deqm/StructureDefinition/extension-criteriaReference",
          "valueString": "E52F7FAE-96D9-417A-8538-6E3DB4A31D7A"
        }, {
          "url": "http://hl7.org/fhir/us/davinci-deqm/StructureDefinition/extension-criteriaReference",
          "valueString": "FBA7B9D9-8588-4CB2-AB72-642CBD980334"
        }, {
          "url": "http://hl7.org/fhir/us/davinci-deqm/StructureDefinition/extension-criteriaReference",
          "valueString": "sde-ethnicity"
        } ],
        "reference": "ServiceRequest/138c50fe-d29f-4cc5-96dd-1b26dddfa56a"
      }, {
        "extension": [ {
          "url": "http://hl7.org/fhir/us/davinci-deqm/StructureDefinition/extension-criteriaReference",
          "valueString": "AD83208C-1313-401E-BB62-ABCCE0982B49"
        }, {
          "url": "http://hl7.org/fhir/us/davinci-deqm/StructureDefinition/extension-criteriaReference",
          "valueString": "696066C7-C558-4849-A325-A3CDDB58CF8F"
        }, {
          "url": "http://hl7.org/fhir/us/davinci-deqm/StructureDefinition/extension-criteriaReference",
          "valueString": "E2557B71-1B97-413F-BE26-2B037E4D590B"
        }, {
          "url": "http://hl7.org/fhir/us/davinci-deqm/StructureDefinition/extension-criteriaReference",
          "valueString": "E52F7FAE-96D9-417A-8538-6E3DB4A31D7A"
        }, {
          "url": "http://hl7.org/fhir/us/davinci-deqm/StructureDefinition/extension-criteriaReference",
          "valueString": "FBA7B9D9-8588-4CB2-AB72-642CBD980334"
        }, {
          "url": "http://hl7.org/fhir/us/davinci-deqm/StructureDefinition/extension-criteriaReference",
          "valueString": "sde-ethnicity"
        } ],
        "reference": "Patient/4a103c45-9743-40c6-9861-e2220336fbfa"
      } ]
    }
  } ]
}