{"resourceType":"Bundle","id":"tests-bp-report-denom-exc-in-5-bundle","type":"transaction","entry":[{"resource":{"resourceType":"Patient","id":"bp-report-denom-exc-in-5","meta":{"profile":["http://hl7.org/fhir/us/ecr/StructureDefinition/us-ph-patient"]},"extension":[{"url":"http://hl7.org/fhir/us/core/StructureDefinition/us-core-race","extension":[{"url":"ombCategory","valueCoding":{"system":"urn:oid:2.16.840.1.113883.6.238","code":"2106-3","display":"White"}}]},{"url":"http://hl7.org/fhir/us/core/StructureDefinition/us-core-ethnicity","extension":[{"url":"ombCategory","valueCoding":{"system":"urn:oid:2.16.840.1.113883.6.238","code":"2135-2","display":"Hispanic or Latino"}}]}],"identifier":[{"use":"usual","type":{"coding":[{"system":"http://terminology.hl7.org/CodeSystem/v2-0203","code":"MR","display":"Medical Record Number"}]},"system":"http://hospital.smarthealthit.org","value":"8675309"}],"name":[{"family":"BloodPressure","given":["Denomexin"]}],"telecom":[{"system":"phone","value":"(210)222-1111","use":"mobile"}],"gender":"female","birthDate":"1954-01-13","address":[{"use":"home","type":"physical","text":"111 Maple Ct, San Antonio, TX 78212","line":["111 Maple Ct"],"city":"San Antonio","district":"Bexar","state":"TX","postalCode":"78212"}]},"request":{"method":"PUT","url":"Patient/bp-report-denom-exc-in-5"}},{"resource":{"resourceType":"Observation","id":"bp-report-denom-exc-in-5-observation","status":"final","code":{"coding":[{"system":"http://snomed.info/sct","version":"2021-09","code":"225612007","display":"Wheelchair bound (finding)"}]},"subject":{"reference":"Patient/bp-report-denom-exc-in-5"},"encounter":{"reference":"Encounter/bp-report-denom-exc-in-5-encounter-1"},"effectiveDateTime":"2025-02-15T11:00:00-07:00"},"request":{"method":"PUT","url":"Observation/bp-report-denom-exc-in-5-observation"}},{"resource":{"resourceType":"Condition","id":"bp-report-denom-exc-in-5-condition","meta":{"profile":["http://hl7.org/fhir/us/core/StructureDefinition/us-core-condition"]},"clinicalStatus":{"coding":[{"system":"http://terminology.hl7.org/CodeSystem/condition-clinical","code":"active","display":"Active"}]},"verificationStatus":{"coding":[{"system":"http://terminology.hl7.org/CodeSystem/condition-ver-status","code":"confirmed","display":"Confirmed"}]},"category":[{"coding":[{"system":"http://terminology.hl7.org/CodeSystem/condition-category","code":"encounter-diagnosis","display":"Encounter Diagnosis"}]}],"code":{"coding":[{"system":"http://snomed.info/sct","code":"78975002","display":"Malignant essential hypertension (disorder)"}]},"subject":{"reference":"Patient/bp-report-denom-exc-in-5"},"onsetDateTime":"2025-03-23T11:01:33-06:00","recordedDate":"2025-03-23T11:01:33-06:00"},"request":{"method":"PUT","url":"Condition/bp-report-denom-exc-in-5-condition"}},{"resource":{"resourceType":"Encounter","id":"bp-report-denom-exc-in-5-encounter-2","meta":{"profile":["http://hl7.org/fhir/us/ecr/StructureDefinition/eicr-encounter"]},"status":"finished","class":{"system":"http://terminology.hl7.org/CodeSystem/v3-ActCode","code":"ACUTE","display":"inpatient acute"},"type":[{"coding":[{"system":"http://snomed.info/sct","version":"2022-09","code":"10378005","display":"Hospital admission, emergency, from emergency room, accidental injury (procedure)"}]}],"subject":{"reference":"Patient/bp-report-denom-exc-in-5"},"period":{"start":"2025-06-19T10:00:00.0-06:00","end":"2025-07-19T11:00:00.0-06:00"}},"request":{"method":"PUT","url":"Encounter/bp-report-denom-exc-in-5-encounter-2"}},{"resource":{"resourceType":"Condition","id":"bp-report-denom-exc-in-5-condition-2","meta":{"profile":["http://hl7.org/fhir/us/core/StructureDefinition/us-core-condition"]},"clinicalStatus":{"coding":[{"system":"http://terminology.hl7.org/CodeSystem/condition-clinical","code":"active","display":"Active"}]},"verificationStatus":{"coding":[{"system":"http://terminology.hl7.org/CodeSystem/condition-ver-status","code":"confirmed","display":"Confirmed"}]},"category":[{"coding":[{"system":"http://terminology.hl7.org/CodeSystem/condition-category","code":"encounter-diagnosis","display":"Encounter Diagnosis"}]}],"code":{"coding":[{"system":"http://snomed.info/sct","version":"2021-03","code":"426012001","display":"Right heart failure due to pulmonary hypertension (disorder)"}]},"subject":{"reference":"Patient/bp-report-denom-exc-in-5"},"encounter":{"reference":"Encounter/bp-report-denom-exc-in-5-encounter-2"},"onsetDateTime":"2025-06-20T11:01:33-06:00","abatementDateTime":"2025-07-18T11:01:33-06:00","recordedDate":"2025-02-23T11:01:33-06:00"},"request":{"method":"PUT","url":"Condition/bp-report-denom-exc-in-5-condition-2"}},{"resource":{"resourceType":"Encounter","id":"bp-report-denom-exc-in-5-encounter-1","meta":{"profile":["http://hl7.org/fhir/us/ecr/StructureDefinition/eicr-encounter"]},"status":"finished","class":{"system":"http://terminology.hl7.org/CodeSystem/v3-ActCode","code":"AMB","display":"ambulatory"},"type":[{"coding":[{"system":"http://snomed.info/sct","code":"444971000124105","display":"Annual wellness visit (procedure)"}]}],"subject":{"reference":"Patient/bp-report-denom-exc-in-5"},"period":{"start":"2025-06-19T10:00:00.0-06:00","end":"2025-06-19T11:00:00.0-06:00"}},"request":{"method":"PUT","url":"Encounter/bp-report-denom-exc-in-5-encounter-1"}}]}