{
  "resourceType": "Measure",
  "id": "DiabetesHemoglobinA1cHbA1cPoorControl9FHIR",
  "meta": {
    "profile": [ "http://hl7.org/fhir/us/cqfmeasures/StructureDefinition/computable-measure-cqfm" ]
  },
  "contained": [ {
    "resourceType": "Library",
    "id": "effective-data-requirements",
    "extension": [ {
      "url": "http://hl7.org/fhir/us/cqfmeasures/StructureDefinition/cqfm-directReferenceCode",
      "valueCoding": {
        "system": "http://terminology.hl7.org/CodeSystem/observation-category",
        "code": "laboratory",
        "display": "laboratory"
      }
    }, {
      "url": "http://hl7.org/fhir/us/cqfmeasures/StructureDefinition/cqfm-directReferenceCode",
      "valueCoding": {
        "system": "http://www.ama-assn.org/go/cpt",
        "code": "97802",
        "display": "Medical nutrition therapy; initial assessment and intervention, individual, face-to-face with the patient, each 15 minutes"
      }
    }, {
      "url": "http://hl7.org/fhir/us/cqfmeasures/StructureDefinition/cqfm-directReferenceCode",
      "valueCoding": {
        "system": "http://www.ama-assn.org/go/cpt",
        "code": "97803",
        "display": "Medical nutrition therapy; re-assessment and intervention, individual, face-to-face with the patient, each 15 minutes"
      }
    }, {
      "url": "http://hl7.org/fhir/us/cqfmeasures/StructureDefinition/cqfm-directReferenceCode",
      "valueCoding": {
        "system": "http://www.ama-assn.org/go/cpt",
        "code": "97804",
        "display": "Medical nutrition therapy; group (2 or more individual(s)), each 30 minutes"
      }
    }, {
      "url": "http://hl7.org/fhir/us/cqfmeasures/StructureDefinition/cqfm-directReferenceCode",
      "valueCoding": {
        "system": "http://www.cms.gov/Medicare/Coding/HCPCSReleaseCodeSets",
        "code": "G0270",
        "display": "Medical nutrition therapy; reassessment and subsequent intervention(s) following second referral in same year for change in diagnosis, medical condition or treatment regimen (including additional hours needed for renal disease), individual, face to face with the patient, each 15 minutes"
      }
    }, {
      "url": "http://hl7.org/fhir/us/cqfmeasures/StructureDefinition/cqfm-directReferenceCode",
      "valueCoding": {
        "system": "http://www.cms.gov/Medicare/Coding/HCPCSReleaseCodeSets",
        "code": "G0271",
        "display": "Medical nutrition therapy, reassessment and subsequent intervention(s) following second referral in same year for change in diagnosis, medical condition, or treatment regimen (including additional hours needed for renal disease), group (2 or more individuals), each 30 minutes"
      }
    }, {
      "url": "http://hl7.org/fhir/us/cqfmeasures/StructureDefinition/cqfm-directReferenceCode",
      "valueCoding": {
        "system": "http://terminology.hl7.org/CodeSystem/condition-clinical",
        "code": "active"
      }
    }, {
      "url": "http://hl7.org/fhir/us/cqfmeasures/StructureDefinition/cqfm-directReferenceCode",
      "valueCoding": {
        "system": "http://terminology.hl7.org/CodeSystem/condition-ver-status",
        "code": "confirmed"
      }
    }, {
      "url": "http://hl7.org/fhir/us/cqfmeasures/StructureDefinition/cqfm-directReferenceCode",
      "valueCoding": {
        "system": "http://loinc.org",
        "code": "88124-3",
        "display": "Food insecurity risk [HVS]"
      }
    }, {
      "url": "http://hl7.org/fhir/us/cqfmeasures/StructureDefinition/cqfm-directReferenceCode",
      "valueCoding": {
        "system": "http://snomed.info/sct",
        "code": "428361000124107",
        "display": "Discharge to home for hospice care (procedure)"
      }
    }, {
      "url": "http://hl7.org/fhir/us/cqfmeasures/StructureDefinition/cqfm-directReferenceCode",
      "valueCoding": {
        "system": "http://snomed.info/sct",
        "code": "428371000124100",
        "display": "Discharge to healthcare facility for hospice care (procedure)"
      }
    }, {
      "url": "http://hl7.org/fhir/us/cqfmeasures/StructureDefinition/cqfm-directReferenceCode",
      "valueCoding": {
        "system": "http://loinc.org",
        "code": "45755-6",
        "display": "Hospice care [Minimum Data Set]"
      }
    }, {
      "url": "http://hl7.org/fhir/us/cqfmeasures/StructureDefinition/cqfm-directReferenceCode",
      "valueCoding": {
        "system": "http://snomed.info/sct",
        "code": "373066001",
        "display": "Yes (qualifier value)"
      }
    }, {
      "url": "http://hl7.org/fhir/us/cqfmeasures/StructureDefinition/cqfm-directReferenceCode",
      "valueCoding": {
        "system": "http://loinc.org",
        "code": "71802-3",
        "display": "Housing status"
      }
    }, {
      "url": "http://hl7.org/fhir/us/cqfmeasures/StructureDefinition/cqfm-directReferenceCode",
      "valueCoding": {
        "system": "http://snomed.info/sct",
        "code": "160734000",
        "display": "Lives in a nursing home (finding)"
      }
    }, {
      "url": "http://hl7.org/fhir/us/cqfmeasures/StructureDefinition/cqfm-directReferenceCode",
      "valueCoding": {
        "system": "http://loinc.org",
        "code": "98181-1",
        "display": "Medical equipment used"
      }
    }, {
      "url": "http://hl7.org/fhir/us/cqfmeasures/StructureDefinition/cqfm-directReferenceCode",
      "valueCoding": {
        "system": "http://loinc.org",
        "code": "71007-9",
        "display": "Functional Assessment of Chronic Illness Therapy - Palliative Care Questionnaire (FACIT-Pal)"
      }
    } ],
    "status": "active",
    "type": {
      "coding": [ {
        "system": "http://terminology.hl7.org/CodeSystem/library-type",
        "code": "module-definition"
      } ]
    },
    "relatedArtifact": [ {
      "type": "depends-on",
      "display": "Library SDE",
      "resource": "http://hl7.org/fhir/us/chronic-ds/Library/SupplementalDataElementsFHIR4|2.0.000"
    }, {
      "type": "depends-on",
      "display": "Library FHIRHelpers",
      "resource": "http://hl7.org/fhir/us/chronic-ds/Library/FHIRHelpers|4.1.000"
    }, {
      "type": "depends-on",
      "display": "Library SurveillanceDataElements",
      "resource": "http://hl7.org/fhir/us/chronic-ds/Library/SurveillanceDataElementsFHIR4|1.0.000"
    }, {
      "type": "depends-on",
      "display": "Library AC",
      "resource": "http://hl7.org/fhir/us/chronic-ds/Library/AlphoraCommon"
    }, {
      "type": "depends-on",
      "display": "Library FC",
      "resource": "http://hl7.org/fhir/us/chronic-ds/Library/FHIRCommon|1.1.000"
    }, {
      "type": "depends-on",
      "display": "Library Common",
      "resource": "http://hl7.org/fhir/us/chronic-ds/Library/MATGlobalCommonFunctionsFHIR4|6.0.000"
    }, {
      "type": "depends-on",
      "display": "Library Hospice",
      "resource": "http://hl7.org/fhir/us/chronic-ds/Library/HospiceFHIR4|2.0.000"
    }, {
      "type": "depends-on",
      "display": "Library Frailty",
      "resource": "http://hl7.org/fhir/us/chronic-ds/Library/AdvancedIllnessandFrailtyExclusionECQMFHIR4|5.12.000"
    }, {
      "type": "depends-on",
      "display": "Library PalliativeCare",
      "resource": "http://hl7.org/fhir/us/chronic-ds/Library/PalliativeCareFHIR"
    }, {
      "type": "depends-on",
      "display": "Code system ObservationCategoryCodes",
      "resource": "http://terminology.hl7.org/CodeSystem/observation-category"
    }, {
      "type": "depends-on",
      "display": "Code system CPT",
      "resource": "http://www.ama-assn.org/go/cpt"
    }, {
      "type": "depends-on",
      "display": "Code system HCPCS",
      "resource": "http://www.cms.gov/Medicare/Coding/HCPCSReleaseCodeSets"
    }, {
      "type": "depends-on",
      "display": "Code system ConditionClinicalStatusCodes",
      "resource": "http://terminology.hl7.org/CodeSystem/condition-clinical"
    }, {
      "type": "depends-on",
      "display": "Code system ConditionVerificationStatusCodes",
      "resource": "http://terminology.hl7.org/CodeSystem/condition-ver-status"
    }, {
      "type": "depends-on",
      "display": "Code system LOINC",
      "resource": "http://loinc.org"
    }, {
      "type": "depends-on",
      "display": "Code system SNOMEDCT",
      "resource": "http://snomed.info/sct"
    }, {
      "type": "depends-on",
      "display": "Value set HbA1c Laboratory Test",
      "resource": "http://cts.nlm.nih.gov/fhir/ValueSet/2.16.840.1.113883.3.464.1003.198.12.1013"
    }, {
      "type": "depends-on",
      "display": "Value set Office Visit",
      "resource": "http://cts.nlm.nih.gov/fhir/ValueSet/2.16.840.1.113883.3.464.1003.101.12.1001"
    }, {
      "type": "depends-on",
      "display": "Value set Annual Wellness Visit",
      "resource": "http://cts.nlm.nih.gov/fhir/ValueSet/2.16.840.1.113883.3.526.3.1240"
    }, {
      "type": "depends-on",
      "display": "Value set Preventive Care Services - Established Office Visit, 18 and Up",
      "resource": "http://cts.nlm.nih.gov/fhir/ValueSet/2.16.840.1.113883.3.464.1003.101.12.1025"
    }, {
      "type": "depends-on",
      "display": "Value set Preventive Care Services - Initial Office Visit, 18 and Up",
      "resource": "http://cts.nlm.nih.gov/fhir/ValueSet/2.16.840.1.113883.3.464.1003.101.12.1023"
    }, {
      "type": "depends-on",
      "display": "Value set Home Healthcare Services",
      "resource": "http://cts.nlm.nih.gov/fhir/ValueSet/2.16.840.1.113883.3.464.1003.101.12.1016"
    }, {
      "type": "depends-on",
      "display": "Value set Nutrition Services",
      "resource": "http://cts.nlm.nih.gov/fhir/ValueSet/2.16.840.1.113883.3.464.1003.1006"
    }, {
      "type": "depends-on",
      "display": "Value set Telephone Visits",
      "resource": "http://cts.nlm.nih.gov/fhir/ValueSet/2.16.840.1.113883.3.464.1003.101.12.1080"
    }, {
      "type": "depends-on",
      "display": "Value set Diabetes",
      "resource": "http://cts.nlm.nih.gov/fhir/ValueSet/2.16.840.1.113883.3.464.1003.103.12.1001"
    }, {
      "type": "depends-on",
      "display": "Value set Payer",
      "resource": "http://cts.nlm.nih.gov/fhir/ValueSet/2.16.840.1.114222.4.11.3591"
    }, {
      "type": "depends-on",
      "display": "Value set Encounter Inpatient",
      "resource": "http://cts.nlm.nih.gov/fhir/ValueSet/2.16.840.1.113883.3.666.5.307"
    }, {
      "type": "depends-on",
      "display": "Value set Hospice Encounter",
      "resource": "http://cts.nlm.nih.gov/fhir/ValueSet/2.16.840.1.113883.3.464.1003.1003"
    }, {
      "type": "depends-on",
      "display": "Value set Hospice Care Ambulatory",
      "resource": "http://cts.nlm.nih.gov/fhir/ValueSet/2.16.840.1.113762.1.4.1108.15"
    }, {
      "type": "depends-on",
      "display": "Value set Hospice Diagnosis",
      "resource": "http://cts.nlm.nih.gov/fhir/ValueSet/2.16.840.1.113883.3.464.1003.1165"
    }, {
      "type": "depends-on",
      "display": "Value set Frailty Device",
      "resource": "http://cts.nlm.nih.gov/fhir/ValueSet/2.16.840.1.113883.3.464.1003.118.12.1300"
    }, {
      "type": "depends-on",
      "display": "Value set Frailty Diagnosis",
      "resource": "http://cts.nlm.nih.gov/fhir/ValueSet/2.16.840.1.113883.3.464.1003.113.12.1074"
    }, {
      "type": "depends-on",
      "display": "Value set Frailty Encounter",
      "resource": "http://cts.nlm.nih.gov/fhir/ValueSet/2.16.840.1.113883.3.464.1003.101.12.1088"
    }, {
      "type": "depends-on",
      "display": "Value set Frailty Symptom",
      "resource": "http://cts.nlm.nih.gov/fhir/ValueSet/2.16.840.1.113883.3.464.1003.113.12.1075"
    }, {
      "type": "depends-on",
      "display": "Value set Outpatient",
      "resource": "http://cts.nlm.nih.gov/fhir/ValueSet/2.16.840.1.113883.3.464.1003.101.12.1087"
    }, {
      "type": "depends-on",
      "display": "Value set Observation",
      "resource": "http://cts.nlm.nih.gov/fhir/ValueSet/2.16.840.1.113883.3.464.1003.101.12.1086"
    }, {
      "type": "depends-on",
      "display": "Value set Emergency Department Visit",
      "resource": "http://cts.nlm.nih.gov/fhir/ValueSet/2.16.840.1.113883.3.464.1003.101.12.1010"
    }, {
      "type": "depends-on",
      "display": "Value set Nonacute Inpatient",
      "resource": "http://cts.nlm.nih.gov/fhir/ValueSet/2.16.840.1.113883.3.464.1003.101.12.1084"
    }, {
      "type": "depends-on",
      "display": "Value set Advanced Illness",
      "resource": "http://cts.nlm.nih.gov/fhir/ValueSet/2.16.840.1.113883.3.464.1003.110.12.1082"
    }, {
      "type": "depends-on",
      "display": "Value set Acute Inpatient",
      "resource": "http://cts.nlm.nih.gov/fhir/ValueSet/2.16.840.1.113883.3.464.1003.101.12.1083"
    }, {
      "type": "depends-on",
      "display": "Value set Dementia Medications",
      "resource": "http://cts.nlm.nih.gov/fhir/ValueSet/2.16.840.1.113883.3.464.1003.196.12.1510"
    }, {
      "type": "depends-on",
      "display": "Value set Palliative Care Diagnosis",
      "resource": "http://cts.nlm.nih.gov/fhir/ValueSet/2.16.840.1.113883.3.464.1003.1167"
    }, {
      "type": "depends-on",
      "display": "Value set Palliative Care Encounter",
      "resource": "http://cts.nlm.nih.gov/fhir/ValueSet/2.16.840.1.113883.3.464.1003.101.12.1090"
    }, {
      "type": "depends-on",
      "display": "Value set Palliative Care Intervention",
      "resource": "http://cts.nlm.nih.gov/fhir/ValueSet/2.16.840.1.113883.3.464.1003.198.12.1135"
    } ],
    "parameter": [ {
      "name": "Measurement Period",
      "use": "in",
      "min": 0,
      "max": "1",
      "type": "Period"
    }, {
      "name": "SDE Sex",
      "use": "out",
      "min": 0,
      "max": "1",
      "type": "Coding"
    }, {
      "name": "SDE Postal Code of Residence",
      "use": "out",
      "min": 0,
      "max": "1",
      "type": "string"
    }, {
      "name": "Numerator",
      "use": "out",
      "min": 0,
      "max": "1",
      "type": "boolean"
    }, {
      "name": "Denominator",
      "use": "out",
      "min": 0,
      "max": "1",
      "type": "boolean"
    }, {
      "name": "SDE Payer",
      "use": "out",
      "min": 0,
      "max": "*",
      "type": "Any"
    }, {
      "name": "SDE State of Residence",
      "use": "out",
      "min": 0,
      "max": "1",
      "type": "string"
    }, {
      "name": "SDE Food Insecurity Risk Status",
      "use": "out",
      "min": 0,
      "max": "1",
      "type": "CodeableConcept"
    }, {
      "name": "Initial Population",
      "use": "out",
      "min": 0,
      "max": "1",
      "type": "boolean"
    }, {
      "name": "SDE Ethnicity",
      "use": "out",
      "min": 0,
      "max": "*",
      "type": "Coding"
    }, {
      "name": "SDE Age",
      "use": "out",
      "min": 0,
      "max": "1",
      "type": "integer"
    }, {
      "name": "Denominator Exclusions",
      "use": "out",
      "min": 0,
      "max": "1",
      "type": "boolean"
    }, {
      "name": "SDE Race",
      "use": "out",
      "min": 0,
      "max": "*",
      "type": "Coding"
    } ],
    "dataRequirement": [ {
      "type": "Patient",
      "profile": [ "http://hl7.org/fhir/StructureDefinition/Patient" ],
      "mustSupport": [ "use", "type", "url", "extension", "value" ]
    }, {
      "type": "Observation",
      "profile": [ "http://hl7.org/fhir/StructureDefinition/Observation" ],
      "mustSupport": [ "code", "value", "effective" ],
      "codeFilter": [ {
        "path": "code",
        "code": [ {
          "system": "http://loinc.org",
          "code": "45755-6",
          "display": "Hospice care [Minimum Data Set]"
        } ]
      } ]
    }, {
      "type": "Observation",
      "profile": [ "http://hl7.org/fhir/StructureDefinition/Observation" ],
      "mustSupport": [ "code", "effective", "value" ],
      "codeFilter": [ {
        "path": "code",
        "code": [ {
          "system": "http://loinc.org",
          "code": "71802-3",
          "display": "Housing status"
        } ]
      } ]
    }, {
      "type": "Observation",
      "profile": [ "http://hl7.org/fhir/StructureDefinition/Observation" ],
      "mustSupport": [ "code", "value", "effective" ],
      "codeFilter": [ {
        "path": "code",
        "code": [ {
          "system": "http://loinc.org",
          "code": "98181-1",
          "display": "Medical equipment used"
        } ]
      } ]
    }, {
      "type": "Observation",
      "profile": [ "http://hl7.org/fhir/StructureDefinition/Observation" ],
      "mustSupport": [ "code", "effective" ],
      "codeFilter": [ {
        "path": "code",
        "valueSet": "http://cts.nlm.nih.gov/fhir/ValueSet/2.16.840.1.113883.3.464.1003.113.12.1075"
      } ]
    }, {
      "type": "Observation",
      "profile": [ "http://hl7.org/fhir/StructureDefinition/Observation" ],
      "mustSupport": [ "code", "effective" ],
      "codeFilter": [ {
        "path": "code",
        "code": [ {
          "system": "http://loinc.org",
          "code": "71007-9",
          "display": "Functional Assessment of Chronic Illness Therapy - Palliative Care Questionnaire (FACIT-Pal)"
        } ]
      } ]
    }, {
      "type": "Observation",
      "profile": [ "http://hl7.org/fhir/StructureDefinition/Observation" ],
      "mustSupport": [ "code", "effective" ],
      "codeFilter": [ {
        "path": "code",
        "valueSet": "http://cts.nlm.nih.gov/fhir/ValueSet/2.16.840.1.113883.3.464.1003.198.12.1013"
      } ]
    }, {
      "type": "Observation",
      "profile": [ "http://hl7.org/fhir/StructureDefinition/Observation" ],
      "mustSupport": [ "code" ],
      "codeFilter": [ {
        "path": "code",
        "code": [ {
          "system": "http://loinc.org",
          "code": "88124-3",
          "display": "Food insecurity risk [HVS]"
        } ]
      } ]
    }, {
      "type": "Encounter",
      "profile": [ "http://hl7.org/fhir/StructureDefinition/Encounter" ],
      "mustSupport": [ "type" ],
      "codeFilter": [ {
        "path": "type",
        "valueSet": "http://cts.nlm.nih.gov/fhir/ValueSet/2.16.840.1.113883.3.464.1003.101.12.1001"
      } ]
    }, {
      "type": "Encounter",
      "profile": [ "http://hl7.org/fhir/StructureDefinition/Encounter" ],
      "mustSupport": [ "type" ],
      "codeFilter": [ {
        "path": "type",
        "valueSet": "http://cts.nlm.nih.gov/fhir/ValueSet/2.16.840.1.113883.3.526.3.1240"
      } ]
    }, {
      "type": "Encounter",
      "profile": [ "http://hl7.org/fhir/StructureDefinition/Encounter" ],
      "mustSupport": [ "type" ],
      "codeFilter": [ {
        "path": "type",
        "valueSet": "http://cts.nlm.nih.gov/fhir/ValueSet/2.16.840.1.113883.3.464.1003.101.12.1025"
      } ]
    }, {
      "type": "Encounter",
      "profile": [ "http://hl7.org/fhir/StructureDefinition/Encounter" ],
      "mustSupport": [ "type" ],
      "codeFilter": [ {
        "path": "type",
        "valueSet": "http://cts.nlm.nih.gov/fhir/ValueSet/2.16.840.1.113883.3.464.1003.101.12.1023"
      } ]
    }, {
      "type": "Encounter",
      "profile": [ "http://hl7.org/fhir/StructureDefinition/Encounter" ],
      "mustSupport": [ "type" ],
      "codeFilter": [ {
        "path": "type",
        "valueSet": "http://cts.nlm.nih.gov/fhir/ValueSet/2.16.840.1.113883.3.464.1003.101.12.1016"
      } ]
    }, {
      "type": "Encounter",
      "profile": [ "http://hl7.org/fhir/StructureDefinition/Encounter" ],
      "mustSupport": [ "type" ],
      "codeFilter": [ {
        "path": "type",
        "valueSet": "http://cts.nlm.nih.gov/fhir/ValueSet/2.16.840.1.113883.3.464.1003.1006"
      } ]
    }, {
      "type": "Encounter",
      "profile": [ "http://hl7.org/fhir/StructureDefinition/Encounter" ],
      "mustSupport": [ "type" ],
      "codeFilter": [ {
        "path": "type",
        "code": [ {
          "system": "http://www.ama-assn.org/go/cpt",
          "code": "97802",
          "display": "Medical nutrition therapy; initial assessment and intervention, individual, face-to-face with the patient, each 15 minutes"
        } ]
      } ]
    }, {
      "type": "Encounter",
      "profile": [ "http://hl7.org/fhir/StructureDefinition/Encounter" ],
      "mustSupport": [ "type" ],
      "codeFilter": [ {
        "path": "type",
        "code": [ {
          "system": "http://www.ama-assn.org/go/cpt",
          "code": "97803",
          "display": "Medical nutrition therapy; re-assessment and intervention, individual, face-to-face with the patient, each 15 minutes"
        } ]
      } ]
    }, {
      "type": "Encounter",
      "profile": [ "http://hl7.org/fhir/StructureDefinition/Encounter" ],
      "mustSupport": [ "type" ],
      "codeFilter": [ {
        "path": "type",
        "code": [ {
          "system": "http://www.ama-assn.org/go/cpt",
          "code": "97804",
          "display": "Medical nutrition therapy; group (2 or more individual(s)), each 30 minutes"
        } ]
      } ]
    }, {
      "type": "Encounter",
      "profile": [ "http://hl7.org/fhir/StructureDefinition/Encounter" ],
      "mustSupport": [ "type" ],
      "codeFilter": [ {
        "path": "type",
        "code": [ {
          "system": "http://www.cms.gov/Medicare/Coding/HCPCSReleaseCodeSets",
          "code": "G0270",
          "display": "Medical nutrition therapy; reassessment and subsequent intervention(s) following second referral in same year for change in diagnosis, medical condition or treatment regimen (including additional hours needed for renal disease), individual, face to face with the patient, each 15 minutes"
        } ]
      } ]
    }, {
      "type": "Encounter",
      "profile": [ "http://hl7.org/fhir/StructureDefinition/Encounter" ],
      "mustSupport": [ "type" ],
      "codeFilter": [ {
        "path": "type",
        "code": [ {
          "system": "http://www.cms.gov/Medicare/Coding/HCPCSReleaseCodeSets",
          "code": "G0271",
          "display": "Medical nutrition therapy, reassessment and subsequent intervention(s) following second referral in same year for change in diagnosis, medical condition, or treatment regimen (including additional hours needed for renal disease), group (2 or more individuals), each 30 minutes"
        } ]
      } ]
    }, {
      "type": "Encounter",
      "profile": [ "http://hl7.org/fhir/StructureDefinition/Encounter" ],
      "mustSupport": [ "type" ],
      "codeFilter": [ {
        "path": "type",
        "valueSet": "http://cts.nlm.nih.gov/fhir/ValueSet/2.16.840.1.113883.3.464.1003.101.12.1080"
      } ]
    }, {
      "type": "Encounter",
      "profile": [ "http://hl7.org/fhir/StructureDefinition/Encounter" ],
      "mustSupport": [ "type", "hospitalization", "hospitalization.dischargeDisposition", "period" ],
      "codeFilter": [ {
        "path": "type",
        "valueSet": "http://cts.nlm.nih.gov/fhir/ValueSet/2.16.840.1.113883.3.666.5.307"
      } ]
    }, {
      "type": "Encounter",
      "profile": [ "http://hl7.org/fhir/StructureDefinition/Encounter" ],
      "mustSupport": [ "type", "period" ],
      "codeFilter": [ {
        "path": "type",
        "valueSet": "http://cts.nlm.nih.gov/fhir/ValueSet/2.16.840.1.113883.3.464.1003.1003"
      } ]
    }, {
      "type": "Encounter",
      "profile": [ "http://hl7.org/fhir/StructureDefinition/Encounter" ],
      "mustSupport": [ "type", "period" ],
      "codeFilter": [ {
        "path": "type",
        "valueSet": "http://cts.nlm.nih.gov/fhir/ValueSet/2.16.840.1.113883.3.464.1003.101.12.1088"
      } ]
    }, {
      "type": "Encounter",
      "profile": [ "http://hl7.org/fhir/StructureDefinition/Encounter" ],
      "mustSupport": [ "type" ],
      "codeFilter": [ {
        "path": "type",
        "valueSet": "http://cts.nlm.nih.gov/fhir/ValueSet/2.16.840.1.113883.3.464.1003.101.12.1087"
      } ]
    }, {
      "type": "Encounter",
      "profile": [ "http://hl7.org/fhir/StructureDefinition/Encounter" ],
      "mustSupport": [ "type" ],
      "codeFilter": [ {
        "path": "type",
        "valueSet": "http://cts.nlm.nih.gov/fhir/ValueSet/2.16.840.1.113883.3.464.1003.101.12.1086"
      } ]
    }, {
      "type": "Encounter",
      "profile": [ "http://hl7.org/fhir/StructureDefinition/Encounter" ],
      "mustSupport": [ "type" ],
      "codeFilter": [ {
        "path": "type",
        "valueSet": "http://cts.nlm.nih.gov/fhir/ValueSet/2.16.840.1.113883.3.464.1003.101.12.1010"
      } ]
    }, {
      "type": "Encounter",
      "profile": [ "http://hl7.org/fhir/StructureDefinition/Encounter" ],
      "mustSupport": [ "type" ],
      "codeFilter": [ {
        "path": "type",
        "valueSet": "http://cts.nlm.nih.gov/fhir/ValueSet/2.16.840.1.113883.3.464.1003.101.12.1084"
      } ]
    }, {
      "type": "Encounter",
      "profile": [ "http://hl7.org/fhir/StructureDefinition/Encounter" ],
      "mustSupport": [ "type", "period" ],
      "codeFilter": [ {
        "path": "type",
        "valueSet": "http://cts.nlm.nih.gov/fhir/ValueSet/2.16.840.1.113883.3.464.1003.101.12.1083"
      } ]
    }, {
      "type": "Encounter",
      "profile": [ "http://hl7.org/fhir/StructureDefinition/Encounter" ],
      "mustSupport": [ "type", "period" ],
      "codeFilter": [ {
        "path": "type",
        "valueSet": "http://cts.nlm.nih.gov/fhir/ValueSet/2.16.840.1.113883.3.464.1003.101.12.1090"
      } ]
    }, {
      "type": "Condition",
      "profile": [ "http://hl7.org/fhir/StructureDefinition/Condition" ],
      "mustSupport": [ "code" ],
      "codeFilter": [ {
        "path": "code",
        "valueSet": "http://cts.nlm.nih.gov/fhir/ValueSet/2.16.840.1.113883.3.464.1003.103.12.1001"
      } ]
    }, {
      "type": "Condition",
      "profile": [ "http://hl7.org/fhir/StructureDefinition/Condition" ],
      "mustSupport": [ "code" ],
      "codeFilter": [ {
        "path": "code",
        "valueSet": "http://cts.nlm.nih.gov/fhir/ValueSet/2.16.840.1.113883.3.464.1003.1165"
      } ]
    }, {
      "type": "Condition",
      "profile": [ "http://hl7.org/fhir/StructureDefinition/Condition" ],
      "mustSupport": [ "code" ],
      "codeFilter": [ {
        "path": "code",
        "valueSet": "http://cts.nlm.nih.gov/fhir/ValueSet/2.16.840.1.113883.3.464.1003.113.12.1074"
      } ]
    }, {
      "type": "Condition",
      "profile": [ "http://hl7.org/fhir/StructureDefinition/Condition" ],
      "mustSupport": [ "code" ],
      "codeFilter": [ {
        "path": "code",
        "valueSet": "http://cts.nlm.nih.gov/fhir/ValueSet/2.16.840.1.113883.3.464.1003.110.12.1082"
      } ]
    }, {
      "type": "Condition",
      "profile": [ "http://hl7.org/fhir/StructureDefinition/Condition" ],
      "mustSupport": [ "code" ],
      "codeFilter": [ {
        "path": "code",
        "valueSet": "http://cts.nlm.nih.gov/fhir/ValueSet/2.16.840.1.113883.3.464.1003.1167"
      } ]
    }, {
      "type": "Coverage",
      "profile": [ "http://hl7.org/fhir/StructureDefinition/Coverage" ],
      "mustSupport": [ "type", "period" ],
      "codeFilter": [ {
        "path": "type",
        "valueSet": "http://cts.nlm.nih.gov/fhir/ValueSet/2.16.840.1.114222.4.11.3591"
      } ]
    }, {
      "type": "ServiceRequest",
      "profile": [ "http://hl7.org/fhir/StructureDefinition/ServiceRequest" ],
      "mustSupport": [ "code", "authoredOn" ],
      "codeFilter": [ {
        "path": "code",
        "valueSet": "http://cts.nlm.nih.gov/fhir/ValueSet/2.16.840.1.113762.1.4.1108.15"
      } ]
    }, {
      "type": "Procedure",
      "profile": [ "http://hl7.org/fhir/StructureDefinition/Procedure" ],
      "mustSupport": [ "code", "performed" ],
      "codeFilter": [ {
        "path": "code",
        "valueSet": "http://cts.nlm.nih.gov/fhir/ValueSet/2.16.840.1.113762.1.4.1108.15"
      } ]
    }, {
      "type": "Procedure",
      "profile": [ "http://hl7.org/fhir/StructureDefinition/Procedure" ],
      "mustSupport": [ "code", "performed" ],
      "codeFilter": [ {
        "path": "code",
        "valueSet": "http://cts.nlm.nih.gov/fhir/ValueSet/2.16.840.1.113883.3.464.1003.198.12.1135"
      } ]
    }, {
      "type": "DeviceRequest",
      "profile": [ "http://hl7.org/fhir/StructureDefinition/DeviceRequest" ],
      "mustSupport": [ "code" ],
      "codeFilter": [ {
        "path": "code",
        "valueSet": "http://cts.nlm.nih.gov/fhir/ValueSet/2.16.840.1.113883.3.464.1003.118.12.1300"
      } ]
    }, {
      "type": "MedicationRequest",
      "profile": [ "http://hl7.org/fhir/StructureDefinition/MedicationRequest" ],
      "mustSupport": [ "medication" ],
      "codeFilter": [ {
        "path": "medication",
        "valueSet": "http://cts.nlm.nih.gov/fhir/ValueSet/2.16.840.1.113883.3.464.1003.196.12.1510"
      } ]
    } ]
  } ],
  "extension": [ {
    "id": "cqf-tooling",
    "url": "http://hl7.org/fhir/us/cqfmeasures/StructureDefinition/cqfm-softwaresystem",
    "valueReference": {
      "reference": "Device/cqf-tooling"
    }
  }, {
    "id": "effective-data-requirements",
    "url": "http://hl7.org/fhir/us/cqfmeasures/StructureDefinition/cqfm-effectiveDataRequirements",
    "valueReference": {
      "reference": "#effective-data-requirements"
    }
  } ],
  "url": "http://hl7.org/fhir/us/chronic-ds/Measure/DiabetesHemoglobinA1cHbA1cPoorControl9FHIR",
  "identifier": [ {
    "use": "usual",
    "system": "short-name",
    "value": "CMS122v11"
  }, {
    "use": "official",
    "system": "publisher",
    "value": "001"
  }, {
    "use": "official",
    "system": "http://hl7.org/fhir/cqi/ecqm/Measure/Identifier/guid",
    "value": "f04ee808-8ece-4936-8b26-fafa462e1594"
  } ],
  "version": "0.0.002",
  "name": "DiabetesHemoglobinA1cHbA1cPoorControl9FHIR",
  "title": "Diabetes: Hemoglobin A1c (HbA1c) Poor Control (> 9%)FHIR",
  "status": "draft",
  "experimental": false,
  "date": "2024-06-21T13:45:26-06:00",
  "publisher": "National Committee for Quality Assurance",
  "contact": [ {
    "telecom": [ {
      "system": "url",
      "value": "https://cms.gov"
    } ]
  } ],
  "description": "Percentage of patients 18-75 years of age with diabetes who had hemoglobin A1c > 9.0% during the measurement period",
  "purpose": "Unknown",
  "copyright": "This Physician Performance Measure (Measure) and related data specifications are owned and were developed by the National Committee for Quality Assurance (NCQA). NCQA is not responsible for any use of the Measure. NCQA makes no representations, warranties, or endorsement about the quality of any organization or physician that uses or reports performance measures and NCQA has no liability to anyone who relies on such measures or specifications. NCQA holds a copyright in the Measure. The Measure can be reproduced and distributed, without modification, for noncommercial purposes (e.g., use by healthcare providers in connection with their practices) without obtaining approval from NCQA. Commercial use is defined as the sale, licensing, or distribution of the Measure for commercial gain, or incorporation of the Measure into a product or service that is sold, licensed or distributed for commercial gain. All commercial uses or requests for modification must be approved by NCQA and are subject to a license at the discretion of NCQA. (C) 2012-2020 National Committee for Quality Assurance. All Rights Reserved. \n\nLimited proprietary coding is contained in the Measure specifications for user convenience. Users of proprietary code sets should obtain all necessary licenses from the owners of the code sets. NCQA disclaims all liability for use or accuracy of any third party codes contained in the specifications.\n\nCPT(R) contained in the Measure specifications is copyright 2004-2020 American Medical Association. LOINC(R) copyright 2004-2020 Regenstrief Institute, Inc. This material contains SNOMED Clinical Terms(R) (SNOMED CT[R]) copyright 2004-2020 International Health Terminology Standards Development Organisation. ICD-10 copyright 2020 World Health Organization. All Rights Reserved.",
  "effectivePeriod": {
    "start": "2024-01-01",
    "end": "2024-12-31"
  },
  "library": [ "http://hl7.org/fhir/us/chronic-ds/Library/DiabetesHemoglobinA1cHbA1cPoorControl9FHIR" ],
  "disclaimer": "The performance Measure is not a clinical guideline and does not establish a standard of medical care, and has not been tested for all potential applications. THE MEASURE AND SPECIFICATIONS ARE PROVIDED \"AS IS\" WITHOUT WARRANTY OF ANY KIND.\n \nDue to technical limitations, registered trademarks are indicated by (R) or [R] and unregistered trademarks are indicated by (TM) or [TM].",
  "scoring": {
    "coding": [ {
      "system": "http://terminology.hl7.org/CodeSystem/measure-scoring",
      "code": "proportion",
      "display": "Proportion"
    } ]
  },
  "type": [ {
    "coding": [ {
      "system": "http://terminology.hl7.org/CodeSystem/measure-type",
      "code": "outcome",
      "display": "intermediateOutcome"
    } ]
  } ],
  "rationale": "Diabetes is the seventh leading cause of death in the United States. In 2017, diabetes affected approximately 34 million Americans (10.5 percent of the U.S. population) and killed approximately 84,000 people (Centers for Disease Control and Prevention [CDC], 2020a). Diabetes is a long-lasting disease marked by high blood glucose levels, resulting from the body's inability to produce or use insulin properly (CDC, 2020a). People with diabetes are at increased risk of serious health complications including vision loss, heart disease, stroke, kidney damage, and amputation of feet or legs (CDC, 2018). \n\nIn 2017, diabetes cost the U.S. an estimated $327 billion: $237 billion in direct medical costs and $90 billion in reduced productivity. This is a 34 percent increase from the estimated $245 billion spent on diabetes in 2012 (American Diabetes Association [ADA], 2018).  \n\nControlling A1c blood levels helps reduce the risk of microvascular complications (eye, kidney and nerve diseases) (ADA, 2020).",
  "clinicalRecommendationStatement": "American Diabetes Association (2020):\n\n- An A1C goal for many nonpregnant adults of <7% (53 mmol/mol) is appropriate. (Level of evidence: A)\n\n- On the basis of provider judgement and patient preference, achievement of lower A1C goals (such as <6.5%) may be acceptable if this can be achieved safely without significant hypoglycemia or other adverse effects of treatment. (Level of evidence: C)\n\n- Less stringent A1C goals (such as <8% [64 mmol/mol]) may be appropriate for patients with a history of severe hypoglycemia, limited life expectancy, advanced microvascular or macrovascular complications, extensive comorbid conditions, or long-standing diabetes in whom the goal is difficult to achieve despite diabetes self-management education, appropriate glucose monitoring, and effective doses of multiple glucose-lowering agents including insulin. (Level of evidence: B)",
  "improvementNotation": {
    "coding": [ {
      "system": "http://terminology.hl7.org/CodeSystem/measure-improvement-notation",
      "code": "decrease",
      "display": "Lower score indicates better quality"
    } ]
  },
  "guidance": "If the HbA1c test result is in the medical record, the test can be used to determine numerator compliance.\n\nOnly patients with a diagnosis of Type 1 or Type 2 diabetes should be included in the denominator of this measure; patients with a diagnosis of secondary diabetes due to another condition should not be included.\n\nThis eCQM is a patient-based measure.\n\nThis version of the eCQM uses QDM version 5.5. Please refer to the eCQI resource center (https://ecqi.healthit.gov/qdm) for more information on the QDM.",
  "group": [ {
    "population": [ {
      "id": "F09F8D18-F787-46EA-8791-3D3EF50A4C72",
      "code": {
        "coding": [ {
          "system": "http://terminology.hl7.org/CodeSystem/measure-population",
          "code": "initial-population",
          "display": "Initial Population"
        } ]
      },
      "description": "Seen patients between 18 and 75 years of age with an active diabetes diagnosis",
      "criteria": {
        "language": "text/cql-identifier",
        "expression": "Initial Population"
      }
    }, {
      "id": "66505C6C-AAB0-4232-B0CA-15FB438090F4",
      "code": {
        "coding": [ {
          "system": "http://terminology.hl7.org/CodeSystem/measure-population",
          "code": "denominator",
          "display": "Denominator"
        } ]
      },
      "description": "Seen patients between 18 and 75 years of age with an active diabetes diagnosis",
      "criteria": {
        "language": "text/cql-identifier",
        "expression": "Denominator"
      }
    }, {
      "id": "95BCB9D4-86A8-43C1-BE29-7440A2ECE294",
      "code": {
        "coding": [ {
          "system": "http://terminology.hl7.org/CodeSystem/measure-population",
          "code": "numerator",
          "display": "Numerator"
        } ]
      },
      "description": "Patients whose most recent HbA1c > 9%",
      "criteria": {
        "language": "text/cql-identifier",
        "expression": "Numerator"
      }
    }, {
      "id": "6AD9B271-BBB4-4BB6-95B1-D1A7E50D812F",
      "code": {
        "coding": [ {
          "system": "http://terminology.hl7.org/CodeSystem/measure-population",
          "code": "denominator-exclusion",
          "display": "Denominator Exclusions"
        } ]
      },
      "description": "Patients in hospice or long term care, or with advanced illness or frailty",
      "criteria": {
        "language": "text/cql-identifier",
        "expression": "Denominator Exclusions"
      }
    } ],
    "stratifier": [ {
      "id": "stratifier-ethnicity",
      "code": {
        "coding": [ {
          "system": "http://loinc.org",
          "code": "54133-4",
          "display": "Ethnicity"
        } ]
      },
      "description": "Ethnicity (CDC Value Set)",
      "criteria": {
        "language": "text/cql-identifier",
        "expression": "SDE Ethnicity"
      }
    }, {
      "id": "stratifier-payer",
      "code": {
        "coding": [ {
          "system": "http://terminology.hl7.org/CodeSystem/coverage-class",
          "code": "plan",
          "display": "SDE Payer"
        } ]
      },
      "description": "Payer",
      "criteria": {
        "language": "text/cql-identifier",
        "expression": "SDE Payer"
      }
    }, {
      "id": "stratifier-race",
      "code": {
        "coding": [ {
          "system": "http://loinc.org",
          "code": "32624-9",
          "display": "SDE Race"
        } ]
      },
      "description": "Race (CDC Value Set)",
      "criteria": {
        "language": "text/cql-identifier",
        "expression": "SDE Race"
      }
    }, {
      "id": "stratifier-sex",
      "code": {
        "coding": [ {
          "system": "http://loinc.org",
          "code": "72143-1",
          "display": "Sex [HL7.v3]"
        } ]
      },
      "description": "Administrative sex",
      "criteria": {
        "language": "text/cql-identifier",
        "expression": "SDE Sex"
      }
    }, {
      "id": "stratifier-age",
      "code": {
        "coding": [ {
          "system": "http://loinc.org",
          "code": "30525-0",
          "display": "Age"
        } ]
      },
      "description": "Age",
      "criteria": {
        "language": "text/cql-identifier",
        "expression": "SDE Age"
      }
    }, {
      "id": "stratifier-state-of-residence",
      "code": {
        "coding": [ {
          "system": "http://loinc.org",
          "code": "52830-7",
          "display": "State, district or territory federal abbreviation"
        } ]
      },
      "description": "State of residence",
      "criteria": {
        "language": "text/cql-identifier",
        "expression": "SDE State of Residence"
      }
    }, {
      "id": "stratifier-postal-code-of-residence",
      "code": {
        "coding": [ {
          "system": "http://loinc.org",
          "code": "45401-7",
          "display": "Postal code"
        } ]
      },
      "description": "Postal code of residence",
      "criteria": {
        "language": "text/cql-identifier",
        "expression": "SDE Postal Code of Residence"
      }
    }, {
      "id": "stratifier-food-insecurity-risk-status",
      "code": {
        "coding": [ {
          "system": "http://loinc.org",
          "code": "88124-3",
          "display": "Food insecurity risk [HVS]"
        } ]
      },
      "description": "Food insecurity risk status",
      "criteria": {
        "language": "text/cql-identifier",
        "expression": "SDE Food Insecurity Risk Status"
      }
    } ]
  } ],
  "supplementalData": [ {
    "id": "sde-ethnicity",
    "code": {
      "coding": [ {
        "system": "http://loinc.org",
        "code": "54133-4",
        "display": "Ethnicity"
      } ]
    },
    "usage": [ {
      "coding": [ {
        "system": "http://terminology.hl7.org/CodeSystem/measure-data-usage",
        "code": "supplemental-data"
      } ]
    } ],
    "description": "Ethnicity (CDC Value Set)",
    "criteria": {
      "language": "text/cql-identifier",
      "expression": "SDE Ethnicity"
    }
  }, {
    "id": "sde-payer",
    "code": {
      "coding": [ {
        "system": "http://terminology.hl7.org/CodeSystem/coverage-class",
        "code": "plan",
        "display": "SDE Payer"
      } ]
    },
    "usage": [ {
      "coding": [ {
        "system": "http://terminology.hl7.org/CodeSystem/measure-data-usage",
        "code": "supplemental-data"
      } ]
    } ],
    "description": "Payer",
    "criteria": {
      "language": "text/cql-identifier",
      "expression": "SDE Payer"
    }
  }, {
    "id": "sde-race",
    "code": {
      "coding": [ {
        "system": "http://loinc.org",
        "code": "32624-9",
        "display": "SDE Race"
      } ]
    },
    "usage": [ {
      "coding": [ {
        "system": "http://terminology.hl7.org/CodeSystem/measure-data-usage",
        "code": "supplemental-data"
      } ]
    } ],
    "description": "Race (CDC Value Set)",
    "criteria": {
      "language": "text/cql-identifier",
      "expression": "SDE Race"
    }
  }, {
    "id": "sde-sex",
    "code": {
      "coding": [ {
        "system": "http://loinc.org",
        "code": "72143-1",
        "display": "Sex [HL7.v3]"
      } ]
    },
    "usage": [ {
      "coding": [ {
        "system": "http://terminology.hl7.org/CodeSystem/measure-data-usage",
        "code": "supplemental-data"
      } ]
    } ],
    "description": "Administrative sex",
    "criteria": {
      "language": "text/cql-identifier",
      "expression": "SDE Sex"
    }
  }, {
    "id": "sde-age",
    "code": {
      "coding": [ {
        "system": "http://loinc.org",
        "code": "30525-0",
        "display": "Age"
      } ]
    },
    "usage": [ {
      "coding": [ {
        "system": "http://terminology.hl7.org/CodeSystem/measure-data-usage",
        "code": "supplemental-data"
      } ]
    } ],
    "description": "Age",
    "criteria": {
      "language": "text/cql-identifier",
      "expression": "SDE Age"
    }
  }, {
    "id": "sde-state-of-residence",
    "code": {
      "coding": [ {
        "system": "http://loinc.org",
        "code": "52830-7",
        "display": "State, district or territory federal abbreviation"
      } ]
    },
    "usage": [ {
      "coding": [ {
        "system": "http://terminology.hl7.org/CodeSystem/measure-data-usage",
        "code": "supplemental-data"
      } ]
    } ],
    "description": "State of residence",
    "criteria": {
      "language": "text/cql-identifier",
      "expression": "SDE State of Residence"
    }
  }, {
    "id": "sde-postal-code-of-residence",
    "code": {
      "coding": [ {
        "system": "http://loinc.org",
        "code": "45401-7",
        "display": "Postal code"
      } ]
    },
    "usage": [ {
      "coding": [ {
        "system": "http://terminology.hl7.org/CodeSystem/measure-data-usage",
        "code": "supplemental-data"
      } ]
    } ],
    "description": "Postal code of residence",
    "criteria": {
      "language": "text/cql-identifier",
      "expression": "SDE Postal Code of Residence"
    }
  }, {
    "id": "sde-food-insecurity-risk-status",
    "code": {
      "coding": [ {
        "system": "http://loinc.org",
        "code": "88124-3",
        "display": "Food insecurity risk [HVS]"
      } ]
    },
    "usage": [ {
      "coding": [ {
        "system": "http://terminology.hl7.org/CodeSystem/measure-data-usage",
        "code": "supplemental-data"
      } ]
    } ],
    "description": "Food insecurity risk status",
    "criteria": {
      "language": "text/cql-identifier",
      "expression": "SDE Food Insecurity Risk Status"
    }
  } ]
}