{"resourceType":"Bundle","id":"tests-bp-report-numer-in-bundle","type":"transaction","entry":[{"resource":{"resourceType":"Patient","id":"bp-report-numer-in","meta":{"profile":["http://hl7.org/fhir/us/ecr/StructureDefinition/us-ph-patient"]},"extension":[{"url":"http://hl7.org/fhir/us/core/StructureDefinition/us-core-race","extension":[{"url":"ombCategory","valueCoding":{"system":"urn:oid:2.16.840.1.113883.6.238","code":"2106-3","display":"White"}}]},{"url":"http://hl7.org/fhir/us/core/StructureDefinition/us-core-ethnicity","extension":[{"url":"ombCategory","valueCoding":{"system":"urn:oid:2.16.840.1.113883.6.238","code":"2135-2","display":"Hispanic or Latino"}}]}],"identifier":[{"use":"usual","type":{"coding":[{"system":"http://terminology.hl7.org/CodeSystem/v2-0203","code":"MR","display":"Medical Record Number"}]},"system":"http://hospital.smarthealthit.org","value":"8675309"}],"name":[{"family":"BloodPressure","given":["Numerin"]}],"telecom":[{"system":"phone","value":"(210)222-1111","use":"mobile"}],"gender":"female","birthDate":"1976-06-13","address":[{"use":"home","type":"physical","text":"111 Maple Ct, San Antonio, TX 78212","line":["111 Maple Ct"],"city":"San Antonio","district":"Bexar","state":"TX","postalCode":"78212"}]},"request":{"method":"PUT","url":"Patient/bp-report-numer-in"}},{"resource":{"resourceType":"Condition","id":"bp-report-numer-in","meta":{"profile":["http://hl7.org/fhir/us/core/StructureDefinition/us-core-condition"]},"clinicalStatus":{"coding":[{"system":"http://terminology.hl7.org/CodeSystem/condition-clinical","code":"active","display":"Active"}]},"verificationStatus":{"coding":[{"system":"http://terminology.hl7.org/CodeSystem/condition-ver-status","code":"confirmed","display":"Confirmed"}]},"category":[{"coding":[{"system":"http://terminology.hl7.org/CodeSystem/condition-category","code":"encounter-diagnosis","display":"Encounter Diagnosis"}]}],"code":{"coding":[{"system":"http://snomed.info/sct","code":"78975002","display":"Malignant essential hypertension (disorder)"}]},"subject":{"reference":"Patient/bp-report-numer-in"},"onsetDateTime":"2019-03-23T11:01:33-06:00","recordedDate":"2019-03-23T11:01:33-06:00"},"request":{"method":"PUT","url":"Condition/bp-report-numer-in"}},{"resource":{"resourceType":"Encounter","id":"bp-report-numer-in","meta":{"profile":["http://hl7.org/fhir/us/ecr/StructureDefinition/eicr-encounter"]},"status":"finished","class":{"system":"http://terminology.hl7.org/CodeSystem/v3-ActCode","code":"AMB","display":"ambulatory"},"type":[{"coding":[{"system":"http://snomed.info/sct","code":"444971000124105","display":"Annual wellness visit (procedure)"}]}],"subject":{"reference":"Patient/bp-report-numer-in"},"period":{"start":"2019-06-19T10:00:00.0-06:00","end":"2019-06-19T11:00:00.0-06:00"}},"request":{"method":"PUT","url":"Encounter/bp-report-numer-in"}},{"resource":{"resourceType":"Observation","id":"bp-report-numer-in","meta":{"profile":["http://hl7.org/fhir/StructureDefinition/vitalsigns"]},"status":"final","category":[{"coding":[{"system":"http://terminology.hl7.org/CodeSystem/observation-category","code":"vital-signs","display":"Vital Signs"}]}],"code":{"coding":[{"system":"http://loinc.org","code":"85354-9","display":"Blood pressure panel with all children optional"}]},"subject":{"reference":"Patient/bp-report-numer-in"},"encounter":{"reference":"Encounter/bp-report-numer-in-systolic"},"effectiveDateTime":"2019-01-17T12:30:00","interpretation":[{"coding":[{"system":"http://terminology.hl7.org/CodeSystem/v3-ObservationInterpretation","code":"L","display":"low"}],"text":"Below low normal"}],"component":[{"code":{"coding":[{"system":"http://loinc.org","code":"8462-4","display":"Diastolic blood pressure"}]},"valueQuantity":{"value":80,"unit":"mm[Hg]","system":"http://unitsofmeasure.org","code":"mm[Hg]"}}]},"request":{"method":"PUT","url":"Observation/bp-report-numer-in"}},{"resource":{"resourceType":"Observation","id":"bp-report-numer-in-systolic","meta":{"profile":["http://hl7.org/fhir/StructureDefinition/vitalsigns"]},"status":"final","category":[{"coding":[{"system":"http://terminology.hl7.org/CodeSystem/observation-category","code":"vital-signs","display":"Vital Signs"}]}],"code":{"coding":[{"system":"http://loinc.org","code":"85354-9","display":"Blood pressure panel with all children optional"}]},"subject":{"reference":"Patient/bp-report-numer-in"},"encounter":{"reference":"Encounter/bp-report-numer-in"},"effectiveDateTime":"2019-01-17T12:30:00","interpretation":[{"coding":[{"system":"http://terminology.hl7.org/CodeSystem/v3-ObservationInterpretation","code":"L","display":"low"}],"text":"Below low normal"}],"component":[{"code":{"coding":[{"system":"http://loinc.org","code":"8480-6","display":"Systolic blood pressure"}]},"valueQuantity":{"value":120,"unit":"mm[Hg]","system":"http://unitsofmeasure.org","code":"mm[Hg]"}}]},"request":{"method":"PUT","url":"Observation/bp-report-numer-in-systolic"}},{"resource":{"resourceType":"Bundle","id":"bp-report-numer-in-notification-bundle","meta":{"lastUpdated":"2021-05-07T04:54:11.358+00:00","profile":["http://hl7.org/fhir/uv/subscriptions-backport/StructureDefinition/backport-subscription-notification"]},"type":"history","timestamp":"2020-05-29T11:44:13.1882432-05:00","entry":[{"fullUrl":"urn:uuid:b21e4fae-ce73-45cb-8e37-1e203362b2ae","resource":{"resourceType":"Parameters","meta":{"lastUpdated":"2021-05-07T04:54:11.358+00:00","profile":["http://hl7.org/fhir/uv/subscriptions-backport/StructureDefinition/backport-subscriptionstatus"]},"parameter":[{"name":"subscription","valueReference":{"reference":"http://localhost:9010/fhir/Subscription/encounter-end"}},{"name":"topic","valueCanonical":"http://hl7.org/fhir/us/medmorph/SubscriptionTopic/encounter-end"},{"name":"type","valueCode":"event-notification"},{"name":"status","valueCode":"active"},{"name":"events-since-subscription-start","valueUnsignedInt":310},{"name":"events-in-notification","valueUnsignedInt":1}]},"request":{"method":"GET","url":"https://example.org/fhir/r4/Subscription/admission/$status"},"response":{"status":"200"}},{"fullUrl":"http://localhost:9010/fhir/Encounter/bp-report-numer-in","resource":{"resourceType":"Encounter","id":"bp-report-numer-in","meta":{"profile":["http://hl7.org/fhir/us/ecr/StructureDefinition/eicr-encounter"]},"status":"finished","class":{"system":"http://terminology.hl7.org/CodeSystem/v3-ActCode","code":"AMB","display":"ambulatory"},"type":[{"coding":[{"system":"http://snomed.info/sct","code":"444971000124105","display":"Annual wellness visit (procedure)"}]}],"subject":{"reference":"Patient/bp-report-numer-in"},"period":{"start":"2019-06-19T10:00:00.0-06:00","end":"2019-06-19T11:00:00.0-06:00"}},"request":{"method":"POST","url":"Encounter"},"response":{"status":"201"}}]},"request":{"method":"PUT","url":"Bundle/bp-report-numer-in-notification-bundle"}}]}