{"resourceType":"Bundle","id":"tests-Patient-denom-2-CMS122-bundle","type":"transaction","entry":[{"resource":{"resourceType":"Observation","id":"Observation-denom-2-CMS122","status":"final","category":[{"coding":[{"system":"http://terminology.hl7.org/CodeSystem/observation-category","code":"laboratory"}]}],"code":{"coding":[{"system":"http://loinc.org","code":"17856-6","display":"Hemoglobin A1c/Hemoglobin.total in Blood by HPLC"}]},"subject":{"reference":"Patient/Patient-denom-2-CMS122"},"effectiveDateTime":"2024-01-17T11:00:00-07:00","valueQuantity":{"value":7.1,"unit":"%","system":"http://unitsofmeasure.org","code":"%"}},"request":{"method":"PUT","url":"Observation/Observation-denom-2-CMS122"}},{"resource":{"resourceType":"Encounter","id":"Encounter-denom-2-CMS122","status":"finished","class":{"system":"http://terminology.hl7.org/CodeSystem/v3-ActCode","code":"HH","display":"Home Health"},"type":[{"coding":[{"system":"http://www.ama-assn.org/go/cpt","code":"99202","display":"Office or other outpatient visit for the evaluation and management of a new patient, which requires a medically appropriate history and/or examination and straightforward medical decision making. When using time for code selection, 15-29 minutes of total time is spent on the date of the encounter."}],"text":"Office Visit"}],"subject":{"reference":"Patient/Patient-denom-2-CMS122"},"period":{"start":"2024-01-20T09:00:00-07:00","end":"2024-01-20T11:00:00-07:00"}},"request":{"method":"PUT","url":"Encounter/Encounter-denom-2-CMS122"}},{"resource":{"resourceType":"Condition","id":"Condition-denom-2-CMS122","clinicalStatus":{"coding":[{"system":"http://terminology.hl7.org/CodeSystem/condition-clinical","code":"active","display":"Active"}],"text":"Active"},"verificationStatus":{"coding":[{"system":"http://terminology.hl7.org/CodeSystem/condition-ver-status","code":"confirmed","display":"confirmed"}],"text":"confirmed"},"severity":{"coding":[{"system":"http://snomed.info/sct","code":"6736007","display":"Moderate"}],"text":"Moderate"},"code":{"coding":[{"system":"http://hl7.org/fhir/sid/icd-10-cm","code":"E10.10","display":"Type 1 diabetes mellitus with ketoacidosis without coma"}],"text":"Type 1 diabetes"},"subject":{"reference":"Patient/Patient-denom-2-CMS122"},"encounter":{"reference":"Encounter/Encounter-denom-2-CMS122"},"onsetPeriod":{"start":"2009-01-16T11:00:00-07:00"}},"request":{"method":"PUT","url":"Condition/Condition-denom-2-CMS122"}},{"resource":{"resourceType":"Patient","id":"Patient-denom-2-CMS122","meta":{"profile":["http://hl7.org/fhir/us/core/StructureDefinition/us-core-patient"]},"extension":[{"url":"http://hl7.org/fhir/us/core/StructureDefinition/us-core-race","extension":[{"url":"ombCategory","valueCoding":{"system":"urn:oid:2.16.840.1.113883.6.238","code":"2028-9","display":"Asian"}}]},{"url":"http://hl7.org/fhir/us/core/StructureDefinition/us-core-ethnicity","extension":[{"url":"ombCategory","valueCoding":{"system":"urn:oid:2.16.840.1.113883.6.238","code":"2186-5","display":"Not Hispanic or Latino"}}]}],"active":true,"name":[{"use":"official","text":"Nuetron,Jimmy","family":"Nuetron","given":["Jimmy"]}],"gender":"male","birthDate":"1965-06-30"},"request":{"method":"PUT","url":"Patient/Patient-denom-2-CMS122"}}]}