{"resourceType":"Bundle","id":"tests-Patient-numer-1-CMS122-bundle","type":"transaction","entry":[{"resource":{"resourceType":"Condition","id":"Condition-numer-1-CMS122","clinicalStatus":{"coding":[{"system":"http://terminology.hl7.org/CodeSystem/condition-clinical","code":"active","display":"Active"}],"text":"Active"},"verificationStatus":{"coding":[{"system":"http://terminology.hl7.org/CodeSystem/condition-ver-status","code":"confirmed","display":"confirmed"}],"text":"confirmed"},"code":{"coding":[{"system":"http://hl7.org/fhir/sid/icd-10-cm","code":"E10.10","display":"Type 1 diabetes mellitus with ketoacidosis without coma"}],"text":"Type 1 diabetes"},"subject":{"reference":"Patient/Patient-numer-1-CMS122"},"encounter":{"reference":"Encounter/Encounter-numer-1-CMS122"},"onsetPeriod":{"start":"2009-01-16T13:00:00-07:00"}},"request":{"method":"PUT","url":"Condition/Condition-numer-1-CMS122"}},{"resource":{"resourceType":"Observation","id":"Observation-numer-1-CMS122","status":"final","category":[{"coding":[{"system":"http://terminology.hl7.org/CodeSystem/observation-category","code":"laboratory"}]}],"code":{"coding":[{"system":"http://loinc.org","code":"17856-6","display":"Hemoglobin A1c/Hemoglobin.total in Blood by HPLC"}]},"subject":{"reference":"Patient/Patient-numer-1-CMS122"},"effectiveDateTime":"2025-01-17T12:32:00-07:00","valueQuantity":{"value":9.1,"unit":"%","system":"http://unitsofmeasure.org","code":"%"}},"request":{"method":"PUT","url":"Observation/Observation-numer-1-CMS122"}},{"resource":{"resourceType":"Encounter","id":"Encounter-numer-1-CMS122","status":"finished","class":{"system":"http://terminology.hl7.org/CodeSystem/v3-ActCode","code":"HH","display":"Home Health"},"type":[{"coding":[{"system":"http://www.ama-assn.org/go/cpt","code":"99202","display":"Office or other outpatient visit for the evaluation and management of a new patient, which requires a medically appropriate history and/or examination and straightforward medical decision making. When using time for code selection, 15-29 minutes of total time is spent on the date of the encounter."}],"text":"Office Visit"}],"subject":{"reference":"Patient/Patient-numer-1-CMS122"},"period":{"start":"2025-01-06T12:32:00-07:00","end":"2025-01-06T13:00:00-07:00"}},"request":{"method":"PUT","url":"Encounter/Encounter-numer-1-CMS122"}},{"resource":{"resourceType":"Patient","id":"Patient-numer-1-CMS122","meta":{"profile":["http://hl7.org/fhir/us/core/StructureDefinition/us-core-patient"]},"extension":[{"url":"http://hl7.org/fhir/us/core/StructureDefinition/us-core-race","extension":[{"url":"ombCategory","valueCoding":{"system":"urn:oid:2.16.840.1.113883.6.238","code":"2106-3","display":"White"}}]},{"url":"http://hl7.org/fhir/us/core/StructureDefinition/us-core-ethnicity","extension":[{"url":"ombCategory","valueCoding":{"system":"urn:oid:2.16.840.1.113883.6.238","code":"2186-5","display":"Not Hispanic or Latino"}}]}],"active":true,"name":[{"use":"official","text":"Doe,Daphne","family":"Doe","given":["Daphne"]}],"gender":"female","birthDate":"1956-11-30"},"request":{"method":"PUT","url":"Patient/Patient-numer-1-CMS122"}}]}