{
  "resourceType": "Bundle",
  "id": "f81d6497-bdfa-4795-b687-ba3314c5b7a7",
  "meta": {
    "versionId": "1",
    "lastUpdated": "2025-02-26T21:20:02.498+00:00",
    "profile": [ "http://hl7.org/fhir/us/ecr/StructureDefinition/eicr-measurereport-bundle" ]
  },
  "type": "message",
  "timestamp": "2025-02-26T21:20:02.498+00:00",
  "entry": [ {
    "fullUrl": "http://ecr.drajer.com/secure/fhir-r4/fhir/MessageHeader/8ce90e41-8d5b-4055-a906-15541bfacd10",
    "resource": {
      "resourceType": "MessageHeader",
      "id": "8ce90e41-8d5b-4055-a906-15541bfacd10",
      "meta": {
        "versionId": "1",
        "lastUpdated": "2025-02-26T21:20:02.513+00:00",
        "profile": [ "http://hl7.org/fhir/us/ecr/StructureDefinition/us-ph-messageheader" ]
      },
      "extension": [ {
        "url": "http://hl7.org/fhir/us/ecr/StructureDefinition/us-ph-message-processing-category-extension",
        "valueString": "notification"
      } ],
      "eventCoding": {
        "system": "http://hl7.org/fhir/us/ecr/CodeSystem/us-ph-message-types-codesystem",
        "code": "eicr-case-report-message"
      },
      "source": {
        "endpoint": "http://ecr.drajer.com/secure/fhir-r4/fhir"
      },
      "reason": {
        "coding": [ {
          "system": "http://hl7.org/fhir/us/ecr/CodeSystem/us-ph-triggerdefinition-namedevents",
          "code": "encounter-end"
        } ]
      },
      "focus": [ {
        "reference": "Bundle/eicr-report-ChronicDSControllingBloodPressure"
      } ]
    }
  }, {
    "resource": {
      "resourceType": "Bundle",
      "id": "eicr-report-ChronicDSControllingBloodPressure",
      "meta": {
        "versionId": "1",
        "lastUpdated": "2025-02-26T21:20:02.498+00:00",
        "profile": [ "http://hl7.org/fhir/us/ecr/StructureDefinition/eicr-document-bundle" ]
      },
      "identifier": {
        "system": "urn:ietf:rfc:3986",
        "value": "eb35bffd-e8bb-4c5a-a77b-2a1803786f70"
      },
      "type": "document",
      "timestamp": "2025-02-26T21:20:02.498+00:00",
      "entry": [ {
        "fullUrl": "http://ecr.drajer.com/secure/fhir-r4/fhir/Composition/f48946e3-e07f-470a-adab-8be0ce7f2eff",
        "resource": {
          "resourceType": "Composition",
          "id": "f48946e3-e07f-470a-adab-8be0ce7f2eff",
          "meta": {
            "versionId": "1",
            "lastUpdated": "2025-02-26T21:20:02.505+00:00",
            "profile": [ "http://hl7.org/fhir/us/ecr/StructureDefinition/eicr-composition" ]
          },
          "extension": [ {
            "url": "http://hl7.org/fhir/StructureDefinition/composition-clinicaldocument-versionNumber",
            "valueString": "1"
          } ],
          "identifier": {
            "value": "f48946e3-e07f-470a-adab-8be0ce7f2eff"
          },
          "status": "final",
          "type": {
            "coding": [ {
              "system": "http://loinc.org",
              "code": "55751-2",
              "display": "Public Health Case Report"
            } ],
            "text": "Public Health Case Report"
          },
          "subject": {
            "reference": "http://ecr.drajer.com/secure/fhir-r4/fhir/Patient/c0774038-1d23-4283-a106-e8a908479480"
          },
          "encounter": {
            "reference": "http://ecr.drajer.com/secure/fhir-r4/fhir/Encounter/4b1a1264-f0f6-4e78-b3d4-01d5a393a24c"
          },
          "date": "2025-02-26T21:20:02+00:00",
          "title": "Public Health Case Report",
          "section": [ {
            "code": {
              "coding": [ {
                "system": "http://loinc.org",
                "code": "29299-5",
                "display": "Reason For Visit Narrative"
              } ],
              "text": "Reason For Visit Narrative"
            },
            "text": {
              "status": "additional",
              "div": "<div xmlns=\"http://www.w3.org/1999/xhtml\">No Reason for Visit Information</div>"
            }
          }, {
            "code": {
              "coding": [ {
                "system": "http://loinc.org",
                "code": "10154-3",
                "display": "Chief complaint Narrative"
              } ],
              "text": "Chief complaint Narrative"
            },
            "text": {
              "status": "additional",
              "div": "<div xmlns=\"http://www.w3.org/1999/xhtml\">No Chief Complaint Information</div>"
            }
          }, {
            "code": {
              "coding": [ {
                "system": "http://loinc.org",
                "code": "10164-2",
                "display": "History of Present illness Narrative"
              } ],
              "text": "History of Present illness Narrative"
            },
            "text": {
              "status": "additional",
              "div": "<div xmlns=\"http://www.w3.org/1999/xhtml\">No Narrative Information</div>"
            }
          }, {
            "code": {
              "coding": [ {
                "system": "http://loinc.org",
                "code": "10187-3",
                "display": "Review of Systems narrative"
              } ],
              "text": "Review of Systems narrative"
            },
            "text": {
              "status": "additional",
              "div": "<div xmlns=\"http://www.w3.org/1999/xhtml\">No Narrative Information</div>"
            }
          }, {
            "code": {
              "coding": [ {
                "system": "http://loinc.org",
                "code": "11450-4",
                "display": "Problem list - Reported"
              } ],
              "text": "Problem list - Reported"
            },
            "text": {
              "status": "additional",
              "div": "<div xmlns=\"http://www.w3.org/1999/xhtml\">No Text Elements found in resources to generate narrative</div>"
            },
            "entry": [ {
              "extension": [ {
                "url": "http://hl7.org/fhir/us/ecr/StructureDefinition/eicr-trigger-code-flag-extension",
                "extension": [ {
                  "url": "triggerCodeValueSet",
                  "valueOid": "2.16.840.1.113883.3.464.1003.104.12.1011"
                }, {
                  "url": "triggerCodeValueSetVersion",
                  "valueString": "20170504"
                }, {
                  "url": "triggerCode",
                  "valueCoding": {
                    "system": "http://snomed.info/sct",
                    "code": "78975002"
                  }
                } ]
              } ],
              "reference": "http://ecr.drajer.com/secure/fhir-r4/fhir/Condition/8b8d9d42-e247-4df1-8d19-d56f043dcffe"
            } ]
          }, {
            "code": {
              "coding": [ {
                "system": "http://loinc.org",
                "code": "11348-0",
                "display": "Past Medical History Narrative"
              } ],
              "text": "Past Medical History Narrative"
            },
            "text": {
              "status": "additional",
              "div": "<div xmlns=\"http://www.w3.org/1999/xhtml\">No Narrative Information</div>"
            }
          }, {
            "code": {
              "coding": [ {
                "system": "http://loinc.org",
                "code": "42346-7",
                "display": "Medications on admission (narrative)"
              } ],
              "text": "Medications on admission (narrative)"
            },
            "text": {
              "status": "additional",
              "div": "<div xmlns=\"http://www.w3.org/1999/xhtml\">No Narrative Information</div>"
            }
          }, {
            "code": {
              "coding": [ {
                "system": "http://loinc.org",
                "code": "29549-3",
                "display": "Medication administered Narrative"
              } ],
              "text": "Medication administered Narrative"
            }
          }, {
            "code": {
              "coding": [ {
                "system": "http://loinc.org",
                "code": "10160-0",
                "display": "History of Medication use Narrative"
              } ],
              "text": "History of Medication use Narrative"
            }
          }, {
            "code": {
              "coding": [ {
                "system": "http://loinc.org",
                "code": "30954-2",
                "display": "Relevant diagnostic tests/laboratory data Narrative"
              } ],
              "text": "Relevant diagnostic tests/laboratory data Narrative"
            }
          }, {
            "code": {
              "coding": [ {
                "system": "http://loinc.org",
                "code": "18776-5",
                "display": "Plan of care note"
              } ],
              "text": "Plan of care note"
            }
          }, {
            "code": {
              "coding": [ {
                "system": "http://loinc.org",
                "code": "11369-6",
                "display": "History of Immunization Narrative"
              } ],
              "text": "History of Immunization Narrative"
            }
          }, {
            "code": {
              "coding": [ {
                "system": "http://loinc.org",
                "code": "47519-4",
                "display": "History of Procedures Document"
              } ],
              "text": "History of Procedures Document"
            }
          }, {
            "code": {
              "coding": [ {
                "system": "http://loinc.org",
                "code": "8716-3",
                "display": "Vital signs"
              } ],
              "text": "Vital signs"
            }
          }, {
            "code": {
              "coding": [ {
                "system": "http://loinc.org",
                "code": "29762-2",
                "display": "Social History Narrative"
              } ],
              "text": "Social History Narrative"
            }
          }, {
            "code": {
              "coding": [ {
                "system": "http://loinc.org",
                "code": "90767-5",
                "display": "Pregnancy Section Narrative"
              } ],
              "text": "Pregnancy Section Narrative"
            }
          }, {
            "code": {
              "coding": [ {
                "system": "http://loinc.org",
                "code": "83910-0",
                "display": "Emergency Outbreak Section Narrative"
              } ],
              "text": "Emergency Outbreak Section Narrative"
            },
            "text": {
              "status": "additional",
              "div": "<div xmlns=\"http://www.w3.org/1999/xhtml\">No Narrative Information</div>"
            }
          } ]
        }
      }, {
        "fullUrl": "http://ecr.drajer.com/secure/fhir-r4/fhir/Patient/c0774038-1d23-4283-a106-e8a908479480",
        "resource": {
          "resourceType": "Patient",
          "id": "c0774038-1d23-4283-a106-e8a908479480",
          "meta": {
            "versionId": "1"
          },
          "extension": [ {
            "url": "http://hl7.org/fhir/us/core/StructureDefinition/us-core-race",
            "extension": [ {
              "url": "ombCategory",
              "valueCoding": {
                "system": "urn:oid:2.16.840.1.113883.6.238",
                "code": "2106-3",
                "display": "White"
              }
            } ]
          }, {
            "url": "http://hl7.org/fhir/us/core/StructureDefinition/us-core-ethnicity",
            "extension": [ {
              "url": "ombCategory",
              "valueCoding": {
                "system": "urn:oid:2.16.840.1.113883.6.238",
                "code": "2135-2",
                "display": "Hispanic or Latino"
              }
            } ]
          } ],
          "identifier": [ {
            "use": "usual",
            "type": {
              "coding": [ {
                "system": "http://terminology.hl7.org/CodeSystem/v2-0203",
                "code": "MR",
                "display": "Medical Record Number"
              } ]
            },
            "system": "http://hospital.smarthealthit.org",
            "value": "8675309"
          } ],
          "name": [ {
            "family": "BloodPressure",
            "given": [ "Numerin" ]
          } ],
          "telecom": [ {
            "system": "phone",
            "value": "(210)222-1111",
            "use": "mobile"
          } ],
          "gender": "female",
          "birthDate": "1976-06-13",
          "address": [ {
            "use": "home",
            "type": "physical",
            "text": "111 Maple Ct, San Antonio, TX 78212",
            "line": [ "[\"111 Maple Ct\"]" ],
            "city": "San Antonio",
            "district": "Bexar",
            "state": "TX",
            "postalCode": "78212"
          } ]
        }
      }, {
        "fullUrl": "http://ecr.drajer.com/secure/fhir-r4/fhir/Encounter/4b1a1264-f0f6-4e78-b3d4-01d5a393a24c",
        "resource": {
          "resourceType": "Encounter",
          "id": "4b1a1264-f0f6-4e78-b3d4-01d5a393a24c",
          "status": "finished",
          "type": [ {
            "coding": [ {
              "system": "http://snomed.info/sct",
              "code": "444971000124105",
              "display": "Annual wellness visit (procedure)"
            } ]
          } ],
          "subject": {
            "reference": "Patient/c0774038-1d23-4283-a106-e8a908479480",
            "display": "Example Patient"
          },
          "period": {
            "start": "2025-06-19T10:00:00.0-06:00",
            "end": "2025-06-19T11:00:00.0-06:00"
          }
        }
      }, {
        "fullUrl": "http://ecr.drajer.com/secure/fhir-r4/fhir/Condition/8b8d9d42-e247-4df1-8d19-d56f043dcffe",
        "resource": {
          "resourceType": "Condition",
          "id": "8b8d9d42-e247-4df1-8d19-d56f043dcffe",
          "meta": {
            "versionId": "1"
          },
          "clinicalStatus": {
            "coding": [ {
              "system": "http://terminology.hl7.org/CodeSystem/condition-clinical",
              "code": "active",
              "display": "Active"
            } ]
          },
          "verificationStatus": {
            "coding": [ {
              "system": "http://terminology.hl7.org/CodeSystem/condition-ver-status",
              "code": "confirmed",
              "display": "Confirmed"
            } ]
          },
          "category": [ {
            "coding": [ {
              "system": "http://terminology.hl7.org/CodeSystem/condition-category",
              "code": "encounter-diagnosis",
              "display": "Encounter Diagnosis"
            } ]
          } ],
          "code": {
            "coding": [ {
              "system": "http://snomed.info/sct",
              "code": "78975002",
              "display": "Malignant essential hypertension (disorder)"
            } ]
          },
          "subject": {
            "reference": "Patient/c0774038-1d23-4283-a106-e8a908479480"
          },
          "onsetDateTime": "2025-03-23T00:00:00+00:00",
          "recordedDate": "2025-03-23T00:00:00+00:00"
        }
      } ]
    }
  }, {
    "resource": {
      "resourceType": "MeasureReport",
      "contained": [ {
        "resourceType": "Observation",
        "id": "1c64cfaf-64b6-46aa-a192-24498d97a4c2",
        "extension": [ {
          "url": "http://hl7.org/fhir/StructureDefinition/cqf-measureInfo",
          "extension": [ {
            "url": "measure",
            "valueCanonical": "http://hl7.org/fhir/us/chronic-ds/Measure/ControllingHighBloodPressureFHIR"
          } ]
        } ],
        "status": "final",
        "code": {
          "coding": [ {
            "system": "http://terminology.hl7.org/CodeSystem/measure-data-usage",
            "code": "supplemental-data"
          }, {
            "system": "http://loinc.org",
            "code": "72143-1",
            "display": "Sex [HL7.v3]"
          } ]
        },
        "valueCodeableConcept": {
          "coding": [ {
            "code": "F"
          } ]
        }
      }, {
        "resourceType": "Observation",
        "id": "243fa60f-d983-44ef-9e89-663014aa3be6",
        "extension": [ {
          "url": "http://hl7.org/fhir/StructureDefinition/cqf-measureInfo",
          "extension": [ {
            "url": "measure",
            "valueCanonical": "http://hl7.org/fhir/us/chronic-ds/Measure/ControllingHighBloodPressureFHIR"
          } ]
        } ],
        "status": "final",
        "code": {
          "coding": [ {
            "system": "http://terminology.hl7.org/CodeSystem/measure-data-usage",
            "code": "supplemental-data"
          }, {
            "system": "http://loinc.org",
            "code": "52830-7",
            "display": "State, district or territory federal abbreviation"
          } ]
        },
        "valueCodeableConcept": {
          "coding": [ {
            "code": "TX"
          } ]
        }
      }, {
        "resourceType": "Observation",
        "id": "f2aa129e-7957-40a8-a999-06c2cf3e6d0b",
        "extension": [ {
          "url": "http://hl7.org/fhir/StructureDefinition/cqf-measureInfo",
          "extension": [ {
            "url": "measure",
            "valueCanonical": "http://hl7.org/fhir/us/chronic-ds/Measure/ControllingHighBloodPressureFHIR"
          } ]
        } ],
        "status": "final",
        "code": {
          "coding": [ {
            "system": "http://terminology.hl7.org/CodeSystem/measure-data-usage",
            "code": "supplemental-data"
          }, {
            "system": "http://loinc.org",
            "code": "45401-7",
            "display": "Postal code"
          } ]
        },
        "valueCodeableConcept": {
          "coding": [ {
            "code": "78212"
          } ]
        }
      }, {
        "resourceType": "Observation",
        "id": "f9a37d60-1265-4cd8-a7a8-e5ea0b3cf3ac",
        "extension": [ {
          "url": "http://hl7.org/fhir/StructureDefinition/cqf-measureInfo",
          "extension": [ {
            "url": "measure",
            "valueCanonical": "http://hl7.org/fhir/us/chronic-ds/Measure/ControllingHighBloodPressureFHIR"
          } ]
        } ],
        "status": "final",
        "code": {
          "coding": [ {
            "system": "http://terminology.hl7.org/CodeSystem/measure-data-usage",
            "code": "supplemental-data"
          }, {
            "system": "http://loinc.org",
            "code": "32624-9",
            "display": "SDE Race"
          } ]
        },
        "valueCodeableConcept": {
          "coding": [ {
            "code": "2106-3"
          } ]
        }
      }, {
        "resourceType": "Observation",
        "id": "dace7b7a-ba00-465d-abef-532cabbde223",
        "extension": [ {
          "url": "http://hl7.org/fhir/StructureDefinition/cqf-measureInfo",
          "extension": [ {
            "url": "measure",
            "valueCanonical": "http://hl7.org/fhir/us/chronic-ds/Measure/ControllingHighBloodPressureFHIR"
          } ]
        } ],
        "status": "final",
        "code": {
          "coding": [ {
            "system": "http://terminology.hl7.org/CodeSystem/measure-data-usage",
            "code": "supplemental-data"
          }, {
            "system": "http://loinc.org",
            "code": "54133-4",
            "display": "Ethnicity"
          } ]
        },
        "valueCodeableConcept": {
          "coding": [ {
            "code": "2135-2"
          } ]
        }
      }, {
        "resourceType": "Observation",
        "id": "141ad57b-b6fd-4e06-992f-772eccab7cda",
        "extension": [ {
          "url": "http://hl7.org/fhir/StructureDefinition/cqf-measureInfo",
          "extension": [ {
            "url": "measure",
            "valueCanonical": "http://hl7.org/fhir/us/chronic-ds/Measure/ControllingHighBloodPressureFHIR"
          } ]
        } ],
        "status": "final",
        "code": {
          "coding": [ {
            "system": "http://terminology.hl7.org/CodeSystem/measure-data-usage",
            "code": "supplemental-data"
          }, {
            "system": "http://loinc.org",
            "code": "30525-0",
            "display": "Age"
          } ]
        },
        "valueCodeableConcept": {
          "coding": [ {
            "code": "49"
          } ]
        }
      } ],
      "extension": [ {
        "url": "http://hl7.org/fhir/5.0/StructureDefinition/extension-MeasureReport.population.description",
        "valueString": "Percentage of patients 18-85 years of age who had a diagnosis of essential hypertension starting before and continuing into, or starting during the first six months of the measurement period, and whose most recent blood pressure was adequately controlled (<140/90 mmHg) during the measurement period"
      }, {
        "url": "http://hl7.org/fhir/5.0/StructureDefinition/extension-MeasureReport.supplementalDataElement.reference",
        "valueReference": {
          "extension": [ {
            "url": "http://hl7.org/fhir/us/davinci-deqm/StructureDefinition/extension-criteriaReference",
            "valueString": "sde-ethnicity"
          } ],
          "reference": "#dace7b7a-ba00-465d-abef-532cabbde223"
        }
      }, {
        "url": "http://hl7.org/fhir/5.0/StructureDefinition/extension-MeasureReport.supplementalDataElement.reference",
        "valueReference": {
          "extension": [ {
            "url": "http://hl7.org/fhir/us/davinci-deqm/StructureDefinition/extension-criteriaReference",
            "valueString": "sde-age"
          } ],
          "reference": "#141ad57b-b6fd-4e06-992f-772eccab7cda"
        }
      }, {
        "url": "http://hl7.org/fhir/5.0/StructureDefinition/extension-MeasureReport.supplementalDataElement.reference",
        "valueReference": {
          "extension": [ {
            "url": "http://hl7.org/fhir/us/davinci-deqm/StructureDefinition/extension-criteriaReference",
            "valueString": "sde-sex"
          } ],
          "reference": "#1c64cfaf-64b6-46aa-a192-24498d97a4c2"
        }
      }, {
        "url": "http://hl7.org/fhir/5.0/StructureDefinition/extension-MeasureReport.supplementalDataElement.reference",
        "valueReference": {
          "extension": [ {
            "url": "http://hl7.org/fhir/us/davinci-deqm/StructureDefinition/extension-criteriaReference",
            "valueString": "sde-postal-code-of-residence"
          } ],
          "reference": "#f2aa129e-7957-40a8-a999-06c2cf3e6d0b"
        }
      }, {
        "url": "http://hl7.org/fhir/5.0/StructureDefinition/extension-MeasureReport.supplementalDataElement.reference",
        "valueReference": {
          "extension": [ {
            "url": "http://hl7.org/fhir/us/davinci-deqm/StructureDefinition/extension-criteriaReference",
            "valueString": "sde-state-of-residence"
          } ],
          "reference": "#243fa60f-d983-44ef-9e89-663014aa3be6"
        }
      }, {
        "url": "http://hl7.org/fhir/5.0/StructureDefinition/extension-MeasureReport.supplementalDataElement.reference",
        "valueReference": {
          "extension": [ {
            "url": "http://hl7.org/fhir/us/davinci-deqm/StructureDefinition/extension-criteriaReference",
            "valueString": "sde-race"
          } ],
          "reference": "#f9a37d60-1265-4cd8-a7a8-e5ea0b3cf3ac"
        }
      } ],
      "status": "complete",
      "type": "individual",
      "measure": "http://hl7.org/fhir/us/chronic-ds/Measure/ControllingHighBloodPressureFHIR|0.0.002",
      "subject": {
        "reference": "Patient/c0774038-1d23-4283-a106-e8a908479480"
      },
      "date": "2025-02-26T21:18:40+00:00",
      "period": {
        "start": "2025-01-01T06:00:00+00:00",
        "end": "2026-01-01T07:59:00+00:00"
      },
      "group": [ {
        "extension": [ {
          "url": "http://hl7.org/fhir/us/cqfmeasures/StructureDefinition/cqfm-improvementNotation",
          "valueCodeableConcept": {
            "coding": [ {
              "system": "http://terminology.hl7.org/CodeSystem/measure-improvement-notation",
              "code": "decrease",
              "display": "Decrease"
            } ]
          }
        }, {
          "url": "http://hl7.org/fhir/us/davinci-deqm/StructureDefinition/extension-cqfm-denominator-membership",
          "valueString": "1"
        }, {
          "url": "http://hl7.org/fhir/us/davinci-deqm/StructureDefinition/extension-cqfm-numerator-membership",
          "valueString": "1"
        } ],
        "population": [ {
          "id": "F348D767-1BDE-41AB-884D-5F0E19093980",
          "extension": [ {
            "url": "http://hl7.org/fhir/5.0/StructureDefinition/extension-MeasureReport.population.description",
            "valueString": "Patients 18-85 years of age who had a visit during the measurement period and diagnosis of essential hypertension"
          } ],
          "code": {
            "coding": [ {
              "system": "http://terminology.hl7.org/CodeSystem/measure-population",
              "code": "initial-population",
              "display": "Initial Population"
            } ]
          },
          "count": 1
        }, {
          "id": "3E0D40B3-64FC-4998-B371-34978D033116",
          "extension": [ {
            "url": "http://hl7.org/fhir/5.0/StructureDefinition/extension-MeasureReport.population.description",
            "valueString": "Patients 18-85 years of age who had a visit during the measurement period and diagnosis of essential hypertension"
          } ],
          "code": {
            "coding": [ {
              "system": "http://terminology.hl7.org/CodeSystem/measure-population",
              "code": "denominator",
              "display": "Denominator"
            } ]
          },
          "count": 1
        }, {
          "id": "24803F44-C643-45C7-A2A5-4C58BD540579",
          "extension": [ {
            "url": "http://hl7.org/fhir/5.0/StructureDefinition/extension-MeasureReport.population.description",
            "valueString": "Patients whose most recent blood pressure is adequately controlled (systolic blood pressure < 140 mmHg and diastolic blood pressure < 90 mmHg) during the measurement period"
          } ],
          "code": {
            "coding": [ {
              "system": "http://terminology.hl7.org/CodeSystem/measure-population",
              "code": "numerator",
              "display": "Numerator"
            } ]
          },
          "count": 1
        }, {
          "id": "95E1480E-8B61-4777-865D-B2A1D6525E1A",
          "extension": [ {
            "url": "http://hl7.org/fhir/5.0/StructureDefinition/extension-MeasureReport.population.description",
            "valueString": "Patients with ESRD or dialysis or renal transplant or pregnancy or in hospice or 66+ in nursing care or 66-80 with frailty and advanced illness or 81+ with frailty or receiving palliative care"
          } ],
          "code": {
            "coding": [ {
              "system": "http://terminology.hl7.org/CodeSystem/measure-population",
              "code": "denominator-exclusion",
              "display": "Denominator Exclusions"
            } ]
          },
          "count": 0
        } ],
        "measureScore": {
          "value": 0.0
        },
        "stratifier": [ {
          "id": "stratifier-ethnicity",
          "extension": [ {
            "url": "http://hl7.org/fhir/5.0/StructureDefinition/extension-MeasureReport.population.description",
            "valueString": "Ethnicity (CDC Value Set)"
          } ],
          "code": [ {
            "coding": [ {
              "system": "http://loinc.org",
              "code": "54133-4",
              "display": "Ethnicity"
            } ]
          } ],
          "stratum": [ {
            "extension": [ {
              "url": "http://hl7.org/fhir/us/davinci-deqm/StructureDefinition/extension-cqfm-denominator-membership",
              "valueString": "0"
            }, {
              "url": "http://hl7.org/fhir/us/davinci-deqm/StructureDefinition/extension-cqfm-numerator-membership",
              "valueString": "0"
            } ],
            "value": {
              "text": "2135-2"
            },
            "population": [ {
              "id": "F348D767-1BDE-41AB-884D-5F0E19093980",
              "extension": [ {
                "url": "http://hl7.org/fhir/5.0/StructureDefinition/extension-MeasureReport.population.description",
                "valueString": "Patients 18-85 years of age who had a visit during the measurement period and diagnosis of essential hypertension"
              } ],
              "code": {
                "coding": [ {
                  "system": "http://terminology.hl7.org/CodeSystem/measure-population",
                  "code": "initial-population",
                  "display": "Initial Population"
                } ]
              },
              "count": 0
            }, {
              "id": "3E0D40B3-64FC-4998-B371-34978D033116",
              "extension": [ {
                "url": "http://hl7.org/fhir/5.0/StructureDefinition/extension-MeasureReport.population.description",
                "valueString": "Patients 18-85 years of age who had a visit during the measurement period and diagnosis of essential hypertension"
              } ],
              "code": {
                "coding": [ {
                  "system": "http://terminology.hl7.org/CodeSystem/measure-population",
                  "code": "denominator",
                  "display": "Denominator"
                } ]
              },
              "count": 0
            }, {
              "id": "24803F44-C643-45C7-A2A5-4C58BD540579",
              "extension": [ {
                "url": "http://hl7.org/fhir/5.0/StructureDefinition/extension-MeasureReport.population.description",
                "valueString": "Patients whose most recent blood pressure is adequately controlled (systolic blood pressure < 140 mmHg and diastolic blood pressure < 90 mmHg) during the measurement period"
              } ],
              "code": {
                "coding": [ {
                  "system": "http://terminology.hl7.org/CodeSystem/measure-population",
                  "code": "numerator",
                  "display": "Numerator"
                } ]
              },
              "count": 0
            }, {
              "id": "95E1480E-8B61-4777-865D-B2A1D6525E1A",
              "extension": [ {
                "url": "http://hl7.org/fhir/5.0/StructureDefinition/extension-MeasureReport.population.description",
                "valueString": "Patients with ESRD or dialysis or renal transplant or pregnancy or in hospice or 66+ in nursing care or 66-80 with frailty and advanced illness or 81+ with frailty or receiving palliative care"
              } ],
              "code": {
                "coding": [ {
                  "system": "http://terminology.hl7.org/CodeSystem/measure-population",
                  "code": "denominator-exclusion",
                  "display": "Denominator Exclusions"
                } ]
              },
              "count": 0
            } ]
          } ]
        }, {
          "id": "stratifier-payer",
          "extension": [ {
            "url": "http://hl7.org/fhir/5.0/StructureDefinition/extension-MeasureReport.population.description",
            "valueString": "Payer"
          } ],
          "code": [ {
            "coding": [ {
              "system": "http://terminology.hl7.org/CodeSystem/coverage-class",
              "code": "plan",
              "display": "SDE Payer"
            } ]
          } ]
        }, {
          "id": "stratifier-race",
          "extension": [ {
            "url": "http://hl7.org/fhir/5.0/StructureDefinition/extension-MeasureReport.population.description",
            "valueString": "Race (CDC Value Set)"
          } ],
          "code": [ {
            "coding": [ {
              "system": "http://loinc.org",
              "code": "32624-9",
              "display": "SDE Race"
            } ]
          } ],
          "stratum": [ {
            "extension": [ {
              "url": "http://hl7.org/fhir/us/davinci-deqm/StructureDefinition/extension-cqfm-denominator-membership",
              "valueString": "0"
            }, {
              "url": "http://hl7.org/fhir/us/davinci-deqm/StructureDefinition/extension-cqfm-numerator-membership",
              "valueString": "0"
            } ],
            "value": {
              "text": "2106-3"
            },
            "population": [ {
              "id": "F348D767-1BDE-41AB-884D-5F0E19093980",
              "extension": [ {
                "url": "http://hl7.org/fhir/5.0/StructureDefinition/extension-MeasureReport.population.description",
                "valueString": "Patients 18-85 years of age who had a visit during the measurement period and diagnosis of essential hypertension"
              } ],
              "code": {
                "coding": [ {
                  "system": "http://terminology.hl7.org/CodeSystem/measure-population",
                  "code": "initial-population",
                  "display": "Initial Population"
                } ]
              },
              "count": 0
            }, {
              "id": "3E0D40B3-64FC-4998-B371-34978D033116",
              "extension": [ {
                "url": "http://hl7.org/fhir/5.0/StructureDefinition/extension-MeasureReport.population.description",
                "valueString": "Patients 18-85 years of age who had a visit during the measurement period and diagnosis of essential hypertension"
              } ],
              "code": {
                "coding": [ {
                  "system": "http://terminology.hl7.org/CodeSystem/measure-population",
                  "code": "denominator",
                  "display": "Denominator"
                } ]
              },
              "count": 0
            }, {
              "id": "24803F44-C643-45C7-A2A5-4C58BD540579",
              "extension": [ {
                "url": "http://hl7.org/fhir/5.0/StructureDefinition/extension-MeasureReport.population.description",
                "valueString": "Patients whose most recent blood pressure is adequately controlled (systolic blood pressure < 140 mmHg and diastolic blood pressure < 90 mmHg) during the measurement period"
              } ],
              "code": {
                "coding": [ {
                  "system": "http://terminology.hl7.org/CodeSystem/measure-population",
                  "code": "numerator",
                  "display": "Numerator"
                } ]
              },
              "count": 0
            }, {
              "id": "95E1480E-8B61-4777-865D-B2A1D6525E1A",
              "extension": [ {
                "url": "http://hl7.org/fhir/5.0/StructureDefinition/extension-MeasureReport.population.description",
                "valueString": "Patients with ESRD or dialysis or renal transplant or pregnancy or in hospice or 66+ in nursing care or 66-80 with frailty and advanced illness or 81+ with frailty or receiving palliative care"
              } ],
              "code": {
                "coding": [ {
                  "system": "http://terminology.hl7.org/CodeSystem/measure-population",
                  "code": "denominator-exclusion",
                  "display": "Denominator Exclusions"
                } ]
              },
              "count": 0
            } ]
          } ]
        }, {
          "id": "stratifier-sex",
          "extension": [ {
            "url": "http://hl7.org/fhir/5.0/StructureDefinition/extension-MeasureReport.population.description",
            "valueString": "Administrative sex"
          } ],
          "code": [ {
            "coding": [ {
              "system": "http://loinc.org",
              "code": "72143-1",
              "display": "Sex [HL7.v3]"
            } ]
          } ],
          "stratum": [ {
            "extension": [ {
              "url": "http://hl7.org/fhir/us/davinci-deqm/StructureDefinition/extension-cqfm-denominator-membership",
              "valueString": "0"
            }, {
              "url": "http://hl7.org/fhir/us/davinci-deqm/StructureDefinition/extension-cqfm-numerator-membership",
              "valueString": "0"
            } ],
            "value": {
              "text": "F"
            },
            "population": [ {
              "id": "F348D767-1BDE-41AB-884D-5F0E19093980",
              "extension": [ {
                "url": "http://hl7.org/fhir/5.0/StructureDefinition/extension-MeasureReport.population.description",
                "valueString": "Patients 18-85 years of age who had a visit during the measurement period and diagnosis of essential hypertension"
              } ],
              "code": {
                "coding": [ {
                  "system": "http://terminology.hl7.org/CodeSystem/measure-population",
                  "code": "initial-population",
                  "display": "Initial Population"
                } ]
              },
              "count": 0
            }, {
              "id": "3E0D40B3-64FC-4998-B371-34978D033116",
              "extension": [ {
                "url": "http://hl7.org/fhir/5.0/StructureDefinition/extension-MeasureReport.population.description",
                "valueString": "Patients 18-85 years of age who had a visit during the measurement period and diagnosis of essential hypertension"
              } ],
              "code": {
                "coding": [ {
                  "system": "http://terminology.hl7.org/CodeSystem/measure-population",
                  "code": "denominator",
                  "display": "Denominator"
                } ]
              },
              "count": 0
            }, {
              "id": "24803F44-C643-45C7-A2A5-4C58BD540579",
              "extension": [ {
                "url": "http://hl7.org/fhir/5.0/StructureDefinition/extension-MeasureReport.population.description",
                "valueString": "Patients whose most recent blood pressure is adequately controlled (systolic blood pressure < 140 mmHg and diastolic blood pressure < 90 mmHg) during the measurement period"
              } ],
              "code": {
                "coding": [ {
                  "system": "http://terminology.hl7.org/CodeSystem/measure-population",
                  "code": "numerator",
                  "display": "Numerator"
                } ]
              },
              "count": 0
            }, {
              "id": "95E1480E-8B61-4777-865D-B2A1D6525E1A",
              "extension": [ {
                "url": "http://hl7.org/fhir/5.0/StructureDefinition/extension-MeasureReport.population.description",
                "valueString": "Patients with ESRD or dialysis or renal transplant or pregnancy or in hospice or 66+ in nursing care or 66-80 with frailty and advanced illness or 81+ with frailty or receiving palliative care"
              } ],
              "code": {
                "coding": [ {
                  "system": "http://terminology.hl7.org/CodeSystem/measure-population",
                  "code": "denominator-exclusion",
                  "display": "Denominator Exclusions"
                } ]
              },
              "count": 0
            } ]
          } ]
        }, {
          "id": "stratifier-age",
          "extension": [ {
            "url": "http://hl7.org/fhir/5.0/StructureDefinition/extension-MeasureReport.population.description",
            "valueString": "Age"
          } ],
          "code": [ {
            "coding": [ {
              "system": "http://loinc.org",
              "code": "30525-0",
              "display": "Age"
            } ]
          } ],
          "stratum": [ {
            "extension": [ {
              "url": "http://hl7.org/fhir/us/davinci-deqm/StructureDefinition/extension-cqfm-denominator-membership",
              "valueString": "0"
            }, {
              "url": "http://hl7.org/fhir/us/davinci-deqm/StructureDefinition/extension-cqfm-numerator-membership",
              "valueString": "0"
            } ],
            "value": {
              "text": "49"
            },
            "population": [ {
              "id": "F348D767-1BDE-41AB-884D-5F0E19093980",
              "extension": [ {
                "url": "http://hl7.org/fhir/5.0/StructureDefinition/extension-MeasureReport.population.description",
                "valueString": "Patients 18-85 years of age who had a visit during the measurement period and diagnosis of essential hypertension"
              } ],
              "code": {
                "coding": [ {
                  "system": "http://terminology.hl7.org/CodeSystem/measure-population",
                  "code": "initial-population",
                  "display": "Initial Population"
                } ]
              },
              "count": 0
            }, {
              "id": "3E0D40B3-64FC-4998-B371-34978D033116",
              "extension": [ {
                "url": "http://hl7.org/fhir/5.0/StructureDefinition/extension-MeasureReport.population.description",
                "valueString": "Patients 18-85 years of age who had a visit during the measurement period and diagnosis of essential hypertension"
              } ],
              "code": {
                "coding": [ {
                  "system": "http://terminology.hl7.org/CodeSystem/measure-population",
                  "code": "denominator",
                  "display": "Denominator"
                } ]
              },
              "count": 0
            }, {
              "id": "24803F44-C643-45C7-A2A5-4C58BD540579",
              "extension": [ {
                "url": "http://hl7.org/fhir/5.0/StructureDefinition/extension-MeasureReport.population.description",
                "valueString": "Patients whose most recent blood pressure is adequately controlled (systolic blood pressure < 140 mmHg and diastolic blood pressure < 90 mmHg) during the measurement period"
              } ],
              "code": {
                "coding": [ {
                  "system": "http://terminology.hl7.org/CodeSystem/measure-population",
                  "code": "numerator",
                  "display": "Numerator"
                } ]
              },
              "count": 0
            }, {
              "id": "95E1480E-8B61-4777-865D-B2A1D6525E1A",
              "extension": [ {
                "url": "http://hl7.org/fhir/5.0/StructureDefinition/extension-MeasureReport.population.description",
                "valueString": "Patients with ESRD or dialysis or renal transplant or pregnancy or in hospice or 66+ in nursing care or 66-80 with frailty and advanced illness or 81+ with frailty or receiving palliative care"
              } ],
              "code": {
                "coding": [ {
                  "system": "http://terminology.hl7.org/CodeSystem/measure-population",
                  "code": "denominator-exclusion",
                  "display": "Denominator Exclusions"
                } ]
              },
              "count": 0
            } ]
          } ]
        }, {
          "id": "stratifier-state-of-residence",
          "extension": [ {
            "url": "http://hl7.org/fhir/5.0/StructureDefinition/extension-MeasureReport.population.description",
            "valueString": "State of residence"
          } ],
          "code": [ {
            "coding": [ {
              "system": "http://loinc.org",
              "code": "52830-7",
              "display": "State, district or territory federal abbreviation"
            } ]
          } ],
          "stratum": [ {
            "extension": [ {
              "url": "http://hl7.org/fhir/us/davinci-deqm/StructureDefinition/extension-cqfm-denominator-membership",
              "valueString": "0"
            }, {
              "url": "http://hl7.org/fhir/us/davinci-deqm/StructureDefinition/extension-cqfm-numerator-membership",
              "valueString": "0"
            } ],
            "value": {
              "text": "TX"
            },
            "population": [ {
              "id": "F348D767-1BDE-41AB-884D-5F0E19093980",
              "extension": [ {
                "url": "http://hl7.org/fhir/5.0/StructureDefinition/extension-MeasureReport.population.description",
                "valueString": "Patients 18-85 years of age who had a visit during the measurement period and diagnosis of essential hypertension"
              } ],
              "code": {
                "coding": [ {
                  "system": "http://terminology.hl7.org/CodeSystem/measure-population",
                  "code": "initial-population",
                  "display": "Initial Population"
                } ]
              },
              "count": 0
            }, {
              "id": "3E0D40B3-64FC-4998-B371-34978D033116",
              "extension": [ {
                "url": "http://hl7.org/fhir/5.0/StructureDefinition/extension-MeasureReport.population.description",
                "valueString": "Patients 18-85 years of age who had a visit during the measurement period and diagnosis of essential hypertension"
              } ],
              "code": {
                "coding": [ {
                  "system": "http://terminology.hl7.org/CodeSystem/measure-population",
                  "code": "denominator",
                  "display": "Denominator"
                } ]
              },
              "count": 0
            }, {
              "id": "24803F44-C643-45C7-A2A5-4C58BD540579",
              "extension": [ {
                "url": "http://hl7.org/fhir/5.0/StructureDefinition/extension-MeasureReport.population.description",
                "valueString": "Patients whose most recent blood pressure is adequately controlled (systolic blood pressure < 140 mmHg and diastolic blood pressure < 90 mmHg) during the measurement period"
              } ],
              "code": {
                "coding": [ {
                  "system": "http://terminology.hl7.org/CodeSystem/measure-population",
                  "code": "numerator",
                  "display": "Numerator"
                } ]
              },
              "count": 0
            }, {
              "id": "95E1480E-8B61-4777-865D-B2A1D6525E1A",
              "extension": [ {
                "url": "http://hl7.org/fhir/5.0/StructureDefinition/extension-MeasureReport.population.description",
                "valueString": "Patients with ESRD or dialysis or renal transplant or pregnancy or in hospice or 66+ in nursing care or 66-80 with frailty and advanced illness or 81+ with frailty or receiving palliative care"
              } ],
              "code": {
                "coding": [ {
                  "system": "http://terminology.hl7.org/CodeSystem/measure-population",
                  "code": "denominator-exclusion",
                  "display": "Denominator Exclusions"
                } ]
              },
              "count": 0
            } ]
          } ]
        }, {
          "id": "stratifier-postal-code-of-residence",
          "extension": [ {
            "url": "http://hl7.org/fhir/5.0/StructureDefinition/extension-MeasureReport.population.description",
            "valueString": "Postal code of residence"
          } ],
          "code": [ {
            "coding": [ {
              "system": "http://loinc.org",
              "code": "45401-7",
              "display": "Postal code"
            } ]
          } ],
          "stratum": [ {
            "extension": [ {
              "url": "http://hl7.org/fhir/us/davinci-deqm/StructureDefinition/extension-cqfm-denominator-membership",
              "valueString": "0"
            }, {
              "url": "http://hl7.org/fhir/us/davinci-deqm/StructureDefinition/extension-cqfm-numerator-membership",
              "valueString": "0"
            } ],
            "value": {
              "text": "78212"
            },
            "population": [ {
              "id": "F348D767-1BDE-41AB-884D-5F0E19093980",
              "extension": [ {
                "url": "http://hl7.org/fhir/5.0/StructureDefinition/extension-MeasureReport.population.description",
                "valueString": "Patients 18-85 years of age who had a visit during the measurement period and diagnosis of essential hypertension"
              } ],
              "code": {
                "coding": [ {
                  "system": "http://terminology.hl7.org/CodeSystem/measure-population",
                  "code": "initial-population",
                  "display": "Initial Population"
                } ]
              },
              "count": 0
            }, {
              "id": "3E0D40B3-64FC-4998-B371-34978D033116",
              "extension": [ {
                "url": "http://hl7.org/fhir/5.0/StructureDefinition/extension-MeasureReport.population.description",
                "valueString": "Patients 18-85 years of age who had a visit during the measurement period and diagnosis of essential hypertension"
              } ],
              "code": {
                "coding": [ {
                  "system": "http://terminology.hl7.org/CodeSystem/measure-population",
                  "code": "denominator",
                  "display": "Denominator"
                } ]
              },
              "count": 0
            }, {
              "id": "24803F44-C643-45C7-A2A5-4C58BD540579",
              "extension": [ {
                "url": "http://hl7.org/fhir/5.0/StructureDefinition/extension-MeasureReport.population.description",
                "valueString": "Patients whose most recent blood pressure is adequately controlled (systolic blood pressure < 140 mmHg and diastolic blood pressure < 90 mmHg) during the measurement period"
              } ],
              "code": {
                "coding": [ {
                  "system": "http://terminology.hl7.org/CodeSystem/measure-population",
                  "code": "numerator",
                  "display": "Numerator"
                } ]
              },
              "count": 0
            }, {
              "id": "95E1480E-8B61-4777-865D-B2A1D6525E1A",
              "extension": [ {
                "url": "http://hl7.org/fhir/5.0/StructureDefinition/extension-MeasureReport.population.description",
                "valueString": "Patients with ESRD or dialysis or renal transplant or pregnancy or in hospice or 66+ in nursing care or 66-80 with frailty and advanced illness or 81+ with frailty or receiving palliative care"
              } ],
              "code": {
                "coding": [ {
                  "system": "http://terminology.hl7.org/CodeSystem/measure-population",
                  "code": "denominator-exclusion",
                  "display": "Denominator Exclusions"
                } ]
              },
              "count": 0
            } ]
          } ]
        }, {
          "id": "stratifier-food-insecurity-risk-status",
          "extension": [ {
            "url": "http://hl7.org/fhir/5.0/StructureDefinition/extension-MeasureReport.population.description",
            "valueString": "Food insecurity risk status"
          } ],
          "code": [ {
            "coding": [ {
              "system": "http://loinc.org",
              "code": "88124-3",
              "display": "Food insecurity risk [HVS]"
            } ]
          } ]
        } ]
      } ],
      "evaluatedResource": [ {
        "extension": [ {
          "url": "http://hl7.org/fhir/us/davinci-deqm/StructureDefinition/extension-criteriaReference",
          "valueString": "F348D767-1BDE-41AB-884D-5F0E19093980"
        }, {
          "url": "http://hl7.org/fhir/us/davinci-deqm/StructureDefinition/extension-criteriaReference",
          "valueString": "3E0D40B3-64FC-4998-B371-34978D033116"
        }, {
          "url": "http://hl7.org/fhir/us/davinci-deqm/StructureDefinition/extension-criteriaReference",
          "valueString": "24803F44-C643-45C7-A2A5-4C58BD540579"
        }, {
          "url": "http://hl7.org/fhir/us/davinci-deqm/StructureDefinition/extension-criteriaReference",
          "valueString": "95E1480E-8B61-4777-865D-B2A1D6525E1A"
        }, {
          "url": "http://hl7.org/fhir/us/davinci-deqm/StructureDefinition/extension-criteriaReference",
          "valueString": "sde-ethnicity"
        } ],
        "reference": "Encounter/4b1a1264-f0f6-4e78-b3d4-01d5a393a24c"
      }, {
        "extension": [ {
          "url": "http://hl7.org/fhir/us/davinci-deqm/StructureDefinition/extension-criteriaReference",
          "valueString": "F348D767-1BDE-41AB-884D-5F0E19093980"
        }, {
          "url": "http://hl7.org/fhir/us/davinci-deqm/StructureDefinition/extension-criteriaReference",
          "valueString": "3E0D40B3-64FC-4998-B371-34978D033116"
        }, {
          "url": "http://hl7.org/fhir/us/davinci-deqm/StructureDefinition/extension-criteriaReference",
          "valueString": "24803F44-C643-45C7-A2A5-4C58BD540579"
        }, {
          "url": "http://hl7.org/fhir/us/davinci-deqm/StructureDefinition/extension-criteriaReference",
          "valueString": "95E1480E-8B61-4777-865D-B2A1D6525E1A"
        }, {
          "url": "http://hl7.org/fhir/us/davinci-deqm/StructureDefinition/extension-criteriaReference",
          "valueString": "sde-ethnicity"
        } ],
        "reference": "Condition/8b8d9d42-e247-4df1-8d19-d56f043dcffe"
      }, {
        "extension": [ {
          "url": "http://hl7.org/fhir/us/davinci-deqm/StructureDefinition/extension-criteriaReference",
          "valueString": "F348D767-1BDE-41AB-884D-5F0E19093980"
        }, {
          "url": "http://hl7.org/fhir/us/davinci-deqm/StructureDefinition/extension-criteriaReference",
          "valueString": "3E0D40B3-64FC-4998-B371-34978D033116"
        }, {
          "url": "http://hl7.org/fhir/us/davinci-deqm/StructureDefinition/extension-criteriaReference",
          "valueString": "24803F44-C643-45C7-A2A5-4C58BD540579"
        }, {
          "url": "http://hl7.org/fhir/us/davinci-deqm/StructureDefinition/extension-criteriaReference",
          "valueString": "95E1480E-8B61-4777-865D-B2A1D6525E1A"
        }, {
          "url": "http://hl7.org/fhir/us/davinci-deqm/StructureDefinition/extension-criteriaReference",
          "valueString": "sde-ethnicity"
        } ],
        "reference": "Observation/a16e0681-d779-4a40-9790-a8876b85f5c6"
      }, {
        "extension": [ {
          "url": "http://hl7.org/fhir/us/davinci-deqm/StructureDefinition/extension-criteriaReference",
          "valueString": "F348D767-1BDE-41AB-884D-5F0E19093980"
        }, {
          "url": "http://hl7.org/fhir/us/davinci-deqm/StructureDefinition/extension-criteriaReference",
          "valueString": "3E0D40B3-64FC-4998-B371-34978D033116"
        }, {
          "url": "http://hl7.org/fhir/us/davinci-deqm/StructureDefinition/extension-criteriaReference",
          "valueString": "24803F44-C643-45C7-A2A5-4C58BD540579"
        }, {
          "url": "http://hl7.org/fhir/us/davinci-deqm/StructureDefinition/extension-criteriaReference",
          "valueString": "95E1480E-8B61-4777-865D-B2A1D6525E1A"
        }, {
          "url": "http://hl7.org/fhir/us/davinci-deqm/StructureDefinition/extension-criteriaReference",
          "valueString": "sde-ethnicity"
        } ],
        "reference": "Patient/c0774038-1d23-4283-a106-e8a908479480"
      }, {
        "extension": [ {
          "url": "http://hl7.org/fhir/us/davinci-deqm/StructureDefinition/extension-criteriaReference",
          "valueString": "F348D767-1BDE-41AB-884D-5F0E19093980"
        }, {
          "url": "http://hl7.org/fhir/us/davinci-deqm/StructureDefinition/extension-criteriaReference",
          "valueString": "3E0D40B3-64FC-4998-B371-34978D033116"
        }, {
          "url": "http://hl7.org/fhir/us/davinci-deqm/StructureDefinition/extension-criteriaReference",
          "valueString": "24803F44-C643-45C7-A2A5-4C58BD540579"
        }, {
          "url": "http://hl7.org/fhir/us/davinci-deqm/StructureDefinition/extension-criteriaReference",
          "valueString": "95E1480E-8B61-4777-865D-B2A1D6525E1A"
        }, {
          "url": "http://hl7.org/fhir/us/davinci-deqm/StructureDefinition/extension-criteriaReference",
          "valueString": "sde-ethnicity"
        } ],
        "reference": "Observation/a0a96450-0bd6-4b1a-9989-575607698be5"
      } ]
    }
  } ]
}