{
  "resourceType": "Bundle",
  "id": "d29931b0-135b-4f2f-8cba-5f9d35b1282f",
  "meta": {
    "versionId": "1",
    "lastUpdated": "2025-02-26T01:27:23.495+00:00",
    "profile": [ "http://hl7.org/fhir/us/ecr/StructureDefinition/eicr-measurereport-bundle" ]
  },
  "type": "message",
  "timestamp": "2025-02-26T01:27:23.495+00:00",
  "entry": [ {
    "fullUrl": "http://ecr.drajer.com/secure/fhir-r4/fhir/MessageHeader/e80bb2ca-0aaa-42a6-83b1-53c5a9b943c4",
    "resource": {
      "resourceType": "MessageHeader",
      "id": "e80bb2ca-0aaa-42a6-83b1-53c5a9b943c4",
      "meta": {
        "versionId": "1",
        "lastUpdated": "2025-02-26T01:27:23.690+00:00",
        "profile": [ "http://hl7.org/fhir/us/ecr/StructureDefinition/us-ph-messageheader" ]
      },
      "extension": [ {
        "url": "http://hl7.org/fhir/us/ecr/StructureDefinition/us-ph-message-processing-category-extension",
        "valueString": "notification"
      } ],
      "eventCoding": {
        "system": "http://hl7.org/fhir/us/ecr/CodeSystem/us-ph-message-types-codesystem",
        "code": "eicr-case-report-message"
      },
      "source": {
        "endpoint": "http://ecr.drajer.com/secure/fhir-r4/fhir"
      },
      "reason": {
        "coding": [ {
          "system": "http://hl7.org/fhir/us/ecr/CodeSystem/us-ph-triggerdefinition-namedevents",
          "code": "encounter-end"
        } ]
      },
      "focus": [ {
        "reference": "Bundle/eicr-report-ChronicDSSeenPatients"
      } ]
    }
  }, {
    "resource": {
      "resourceType": "Bundle",
      "id": "eicr-report-ChronicDSSeenPatients",
      "meta": {
        "versionId": "1",
        "lastUpdated": "2025-02-26T01:27:23.496+00:00",
        "profile": [ "http://hl7.org/fhir/us/ecr/StructureDefinition/eicr-document-bundle" ]
      },
      "identifier": {
        "system": "urn:ietf:rfc:3986",
        "value": "3670ec61-fb9e-4642-9191-26bf5c4bf1ae"
      },
      "type": "document",
      "timestamp": "2025-02-26T01:27:23.496+00:00",
      "entry": [ {
        "fullUrl": "http://ecr.drajer.com/secure/fhir-r4/fhir/Composition/11716f05-6a66-474a-9a15-81c3e6f36772",
        "resource": {
          "resourceType": "Composition",
          "id": "11716f05-6a66-474a-9a15-81c3e6f36772",
          "meta": {
            "versionId": "1",
            "lastUpdated": "2025-02-26T01:27:23.621+00:00",
            "profile": [ "http://hl7.org/fhir/us/ecr/StructureDefinition/eicr-composition" ]
          },
          "extension": [ {
            "url": "http://hl7.org/fhir/StructureDefinition/composition-clinicaldocument-versionNumber",
            "valueString": "1"
          } ],
          "identifier": {
            "value": "11716f05-6a66-474a-9a15-81c3e6f36772"
          },
          "status": "final",
          "type": {
            "coding": [ {
              "system": "http://loinc.org",
              "code": "55751-2",
              "display": "Public Health Case Report"
            } ],
            "text": "Public Health Case Report"
          },
          "subject": {
            "reference": "http://ecr.drajer.com/secure/fhir-r4/fhir/Patient/b2f6d270-de8b-4418-80fb-d6e9cdb74433"
          },
          "encounter": {
            "reference": "http://ecr.drajer.com/secure/fhir-r4/fhir/Encounter/1bab8e12-673c-47c0-a750-f3a5f1edf2cb"
          },
          "date": "2025-02-26T01:27:23+00:00",
          "title": "Public Health Case Report",
          "section": [ {
            "code": {
              "coding": [ {
                "system": "http://loinc.org",
                "code": "29299-5",
                "display": "Reason For Visit Narrative"
              } ],
              "text": "Reason For Visit Narrative"
            },
            "text": {
              "status": "additional",
              "div": "<div xmlns=\"http://www.w3.org/1999/xhtml\">No Reason for Visit Information</div>"
            }
          }, {
            "code": {
              "coding": [ {
                "system": "http://loinc.org",
                "code": "10154-3",
                "display": "Chief complaint Narrative"
              } ],
              "text": "Chief complaint Narrative"
            },
            "text": {
              "status": "additional",
              "div": "<div xmlns=\"http://www.w3.org/1999/xhtml\">No Chief Complaint Information</div>"
            }
          }, {
            "code": {
              "coding": [ {
                "system": "http://loinc.org",
                "code": "10164-2",
                "display": "History of Present illness Narrative"
              } ],
              "text": "History of Present illness Narrative"
            },
            "text": {
              "status": "additional",
              "div": "<div xmlns=\"http://www.w3.org/1999/xhtml\">No Narrative Information</div>"
            }
          }, {
            "code": {
              "coding": [ {
                "system": "http://loinc.org",
                "code": "10187-3",
                "display": "Review of Systems narrative"
              } ],
              "text": "Review of Systems narrative"
            },
            "text": {
              "status": "additional",
              "div": "<div xmlns=\"http://www.w3.org/1999/xhtml\">No Narrative Information</div>"
            }
          }, {
            "code": {
              "coding": [ {
                "system": "http://loinc.org",
                "code": "11450-4",
                "display": "Problem list - Reported"
              } ],
              "text": "Problem list - Reported"
            }
          }, {
            "code": {
              "coding": [ {
                "system": "http://loinc.org",
                "code": "11348-0",
                "display": "Past Medical History Narrative"
              } ],
              "text": "Past Medical History Narrative"
            },
            "text": {
              "status": "additional",
              "div": "<div xmlns=\"http://www.w3.org/1999/xhtml\">No Narrative Information</div>"
            }
          }, {
            "code": {
              "coding": [ {
                "system": "http://loinc.org",
                "code": "42346-7",
                "display": "Medications on admission (narrative)"
              } ],
              "text": "Medications on admission (narrative)"
            },
            "text": {
              "status": "additional",
              "div": "<div xmlns=\"http://www.w3.org/1999/xhtml\">No Narrative Information</div>"
            }
          }, {
            "code": {
              "coding": [ {
                "system": "http://loinc.org",
                "code": "29549-3",
                "display": "Medication administered Narrative"
              } ],
              "text": "Medication administered Narrative"
            }
          }, {
            "code": {
              "coding": [ {
                "system": "http://loinc.org",
                "code": "10160-0",
                "display": "History of Medication use Narrative"
              } ],
              "text": "History of Medication use Narrative"
            }
          }, {
            "code": {
              "coding": [ {
                "system": "http://loinc.org",
                "code": "30954-2",
                "display": "Relevant diagnostic tests/laboratory data Narrative"
              } ],
              "text": "Relevant diagnostic tests/laboratory data Narrative"
            }
          }, {
            "code": {
              "coding": [ {
                "system": "http://loinc.org",
                "code": "18776-5",
                "display": "Plan of care note"
              } ],
              "text": "Plan of care note"
            }
          }, {
            "code": {
              "coding": [ {
                "system": "http://loinc.org",
                "code": "11369-6",
                "display": "History of Immunization Narrative"
              } ],
              "text": "History of Immunization Narrative"
            }
          }, {
            "code": {
              "coding": [ {
                "system": "http://loinc.org",
                "code": "47519-4",
                "display": "History of Procedures Document"
              } ],
              "text": "History of Procedures Document"
            }
          }, {
            "code": {
              "coding": [ {
                "system": "http://loinc.org",
                "code": "8716-3",
                "display": "Vital signs"
              } ],
              "text": "Vital signs"
            }
          }, {
            "code": {
              "coding": [ {
                "system": "http://loinc.org",
                "code": "29762-2",
                "display": "Social History Narrative"
              } ],
              "text": "Social History Narrative"
            }
          }, {
            "code": {
              "coding": [ {
                "system": "http://loinc.org",
                "code": "90767-5",
                "display": "Pregnancy Section Narrative"
              } ],
              "text": "Pregnancy Section Narrative"
            }
          }, {
            "code": {
              "coding": [ {
                "system": "http://loinc.org",
                "code": "83910-0",
                "display": "Emergency Outbreak Section Narrative"
              } ],
              "text": "Emergency Outbreak Section Narrative"
            },
            "text": {
              "status": "additional",
              "div": "<div xmlns=\"http://www.w3.org/1999/xhtml\">No Narrative Information</div>"
            }
          } ]
        }
      }, {
        "fullUrl": "http://ecr.drajer.com/secure/fhir-r4/fhir/Encounter/1bab8e12-673c-47c0-a750-f3a5f1edf2cb",
        "resource": {
          "resourceType": "Encounter",
          "id": "1bab8e12-673c-47c0-a750-f3a5f1edf2cb",
          "status": "finished",
          "type": [ {
            "coding": [ {
              "system": "http://www.ama-assn.org/go/cpt",
              "code": "99202",
              "display": "Office or other outpatient visit for the evaluation and management of a new patient, which requires a medically appropriate history and/or examination and straightforward medical decision making. When using time for code selection, 15-29 minutes of total time is spent on the date of the encounter."
            } ]
          } ],
          "subject": {
            "reference": "Patient/b2f6d270-de8b-4418-80fb-d6e9cdb74433",
            "display": "Example Patient"
          },
          "period": {
            "start": "2025-01-16T00:00:00+00:00",
            "end": "2025-01-20T00:00:00+00:00"
          }
        }
      }, {
        "fullUrl": "http://ecr.drajer.com/secure/fhir-r4/fhir/Patient/b2f6d270-de8b-4418-80fb-d6e9cdb74433",
        "resource": {
          "resourceType": "Patient",
          "id": "b2f6d270-de8b-4418-80fb-d6e9cdb74433",
          "meta": {
            "versionId": "1"
          },
          "extension": [ {
            "url": "http://hl7.org/fhir/us/core/StructureDefinition/us-core-race",
            "extension": [ {
              "url": "ombCategory",
              "valueCoding": {
                "system": "urn:oid:2.16.840.1.113883.6.238",
                "code": "2106-3",
                "display": "White"
              }
            } ]
          }, {
            "url": "http://hl7.org/fhir/us/core/StructureDefinition/us-core-ethnicity",
            "extension": [ {
              "url": "ombCategory",
              "valueCoding": {
                "system": "urn:oid:2.16.840.1.113883.6.238",
                "code": "2135-2",
                "display": "Hispanic or Latino"
              }
            } ]
          } ],
          "identifier": [ {
            "use": "usual",
            "type": {
              "coding": [ {
                "system": "http://terminology.hl7.org/CodeSystem/v2-0203",
                "code": "MR",
                "display": "Medical Record Number"
              } ]
            },
            "system": "http://hospital.smarthealthit.org",
            "value": "8675309"
          } ],
          "name": [ {
            "family": "Adams",
            "given": [ "Jane" ]
          } ],
          "telecom": [ {
            "system": "phone",
            "value": "(210)222-1111",
            "use": "mobile"
          } ],
          "gender": "female",
          "birthDate": "1963-06-13",
          "address": [ {
            "use": "home",
            "type": "physical",
            "text": "111 Maple Ct, San Antonio, TX 78212",
            "line": [ "[\"111 Maple Ct\"]" ],
            "city": "San Antonio",
            "district": "Bexar",
            "state": "TX",
            "postalCode": "78212"
          } ]
        }
      } ]
    }
  }, {
    "resource": {
      "resourceType": "MeasureReport",
      "contained": [ {
        "resourceType": "Observation",
        "id": "1ae8129c-9ff2-4068-8d9a-e327af93c9a7",
        "extension": [ {
          "url": "http://hl7.org/fhir/StructureDefinition/cqf-measureInfo",
          "extension": [ {
            "url": "measure",
            "valueCanonical": "http://hl7.org/fhir/us/chronic-ds/Measure/SeenPatients"
          } ]
        } ],
        "status": "final",
        "code": {
          "coding": [ {
            "system": "http://terminology.hl7.org/CodeSystem/measure-data-usage",
            "code": "supplemental-data"
          }, {
            "system": "http://loinc.org",
            "code": "88124-3",
            "display": "Food insecurity risk [HVS]"
          } ],
          "text": "sde-food-insecurity-risk-status"
        },
        "valueCodeableConcept": {
          "coding": [ {
            "code": "LA19952-3"
          } ]
        }
      }, {
        "resourceType": "Observation",
        "id": "7bfa2e8f-debf-4f9d-ada2-bdd19cdf5180",
        "extension": [ {
          "url": "http://hl7.org/fhir/StructureDefinition/cqf-measureInfo",
          "extension": [ {
            "url": "measure",
            "valueCanonical": "http://hl7.org/fhir/us/chronic-ds/Measure/SeenPatients"
          } ]
        } ],
        "status": "final",
        "code": {
          "coding": [ {
            "system": "http://terminology.hl7.org/CodeSystem/measure-data-usage",
            "code": "supplemental-data"
          }, {
            "system": "http://loinc.org",
            "code": "72143-1",
            "display": "Sex [HL7.v3]"
          } ],
          "text": "sde-sex"
        },
        "valueCodeableConcept": {
          "coding": [ {
            "code": "F"
          } ]
        }
      }, {
        "resourceType": "Observation",
        "id": "39d339bd-64c3-46b6-9232-d236db318a2e",
        "extension": [ {
          "url": "http://hl7.org/fhir/StructureDefinition/cqf-measureInfo",
          "extension": [ {
            "url": "measure",
            "valueCanonical": "http://hl7.org/fhir/us/chronic-ds/Measure/SeenPatients"
          } ]
        } ],
        "status": "final",
        "code": {
          "coding": [ {
            "system": "http://terminology.hl7.org/CodeSystem/measure-data-usage",
            "code": "supplemental-data"
          }, {
            "system": "http://loinc.org",
            "code": "45401-7",
            "display": "Postal code"
          } ],
          "text": "sde-postal-code-of-residence"
        },
        "valueCodeableConcept": {
          "coding": [ {
            "code": "78212"
          } ]
        }
      }, {
        "resourceType": "Observation",
        "id": "89855c9b-c1a1-4c53-b7f5-c84d4ed7b91d",
        "extension": [ {
          "url": "http://hl7.org/fhir/StructureDefinition/cqf-measureInfo",
          "extension": [ {
            "url": "measure",
            "valueCanonical": "http://hl7.org/fhir/us/chronic-ds/Measure/SeenPatients"
          } ]
        } ],
        "status": "final",
        "code": {
          "coding": [ {
            "system": "http://terminology.hl7.org/CodeSystem/measure-data-usage",
            "code": "supplemental-data"
          }, {
            "system": "http://loinc.org",
            "code": "32624-9",
            "display": "Race"
          } ],
          "text": "sde-race"
        },
        "valueCodeableConcept": {
          "coding": [ {
            "code": "2106-3"
          } ]
        }
      }, {
        "resourceType": "Observation",
        "id": "a26a22e8-05f6-424b-a096-cf5a5f9ade1e",
        "extension": [ {
          "url": "http://hl7.org/fhir/StructureDefinition/cqf-measureInfo",
          "extension": [ {
            "url": "measure",
            "valueCanonical": "http://hl7.org/fhir/us/chronic-ds/Measure/SeenPatients"
          } ]
        } ],
        "status": "final",
        "code": {
          "coding": [ {
            "system": "http://terminology.hl7.org/CodeSystem/measure-data-usage",
            "code": "supplemental-data"
          }, {
            "system": "http://loinc.org",
            "code": "30525-0",
            "display": "Age"
          } ],
          "text": "sde-age"
        },
        "valueCodeableConcept": {
          "coding": [ {
            "code": "62"
          } ]
        }
      }, {
        "resourceType": "Observation",
        "id": "74ebab96-be81-4c63-8472-ade729af4011",
        "extension": [ {
          "url": "http://hl7.org/fhir/StructureDefinition/cqf-measureInfo",
          "extension": [ {
            "url": "measure",
            "valueCanonical": "http://hl7.org/fhir/us/chronic-ds/Measure/SeenPatients"
          } ]
        } ],
        "status": "final",
        "code": {
          "coding": [ {
            "system": "http://terminology.hl7.org/CodeSystem/measure-data-usage",
            "code": "supplemental-data"
          }, {
            "system": "http://loinc.org",
            "code": "54133-4",
            "display": "Ethnicity"
          } ],
          "text": "sde-ethnicity"
        },
        "valueCodeableConcept": {
          "coding": [ {
            "code": "2135-2"
          } ]
        }
      }, {
        "resourceType": "Observation",
        "id": "89e18499-e2e5-4238-a168-d3dbbb5f285c",
        "extension": [ {
          "url": "http://hl7.org/fhir/StructureDefinition/cqf-measureInfo",
          "extension": [ {
            "url": "measure",
            "valueCanonical": "http://hl7.org/fhir/us/chronic-ds/Measure/SeenPatients"
          } ]
        } ],
        "status": "final",
        "code": {
          "coding": [ {
            "system": "http://terminology.hl7.org/CodeSystem/measure-data-usage",
            "code": "supplemental-data"
          }, {
            "system": "http://loinc.org",
            "code": "52830-7",
            "display": "State, district or territory federal abbreviation"
          } ],
          "text": "sde-state-of-residence"
        },
        "valueCodeableConcept": {
          "coding": [ {
            "code": "TX"
          } ]
        }
      } ],
      "extension": [ {
        "url": "http://hl7.org/fhir/5.0/StructureDefinition/extension-MeasureReport.population.description",
        "valueString": "Seen patients during the measurement period"
      }, {
        "url": "http://hl7.org/fhir/5.0/StructureDefinition/extension-MeasureReport.supplementalDataElement.reference",
        "valueReference": {
          "extension": [ {
            "url": "http://hl7.org/fhir/us/davinci-deqm/StructureDefinition/extension-criteriaReference",
            "valueString": "sde-ethnicity"
          } ],
          "reference": "#74ebab96-be81-4c63-8472-ade729af4011"
        }
      }, {
        "url": "http://hl7.org/fhir/5.0/StructureDefinition/extension-MeasureReport.supplementalDataElement.reference",
        "valueReference": {
          "extension": [ {
            "url": "http://hl7.org/fhir/us/davinci-deqm/StructureDefinition/extension-criteriaReference",
            "valueString": "sde-race"
          } ],
          "reference": "#89855c9b-c1a1-4c53-b7f5-c84d4ed7b91d"
        }
      }, {
        "url": "http://hl7.org/fhir/5.0/StructureDefinition/extension-MeasureReport.supplementalDataElement.reference",
        "valueReference": {
          "extension": [ {
            "url": "http://hl7.org/fhir/us/davinci-deqm/StructureDefinition/extension-criteriaReference",
            "valueString": "sde-state-of-residence"
          } ],
          "reference": "#89e18499-e2e5-4238-a168-d3dbbb5f285c"
        }
      }, {
        "url": "http://hl7.org/fhir/5.0/StructureDefinition/extension-MeasureReport.supplementalDataElement.reference",
        "valueReference": {
          "extension": [ {
            "url": "http://hl7.org/fhir/us/davinci-deqm/StructureDefinition/extension-criteriaReference",
            "valueString": "sde-food-insecurity-risk-status"
          } ],
          "reference": "#1ae8129c-9ff2-4068-8d9a-e327af93c9a7"
        }
      }, {
        "url": "http://hl7.org/fhir/5.0/StructureDefinition/extension-MeasureReport.supplementalDataElement.reference",
        "valueReference": {
          "extension": [ {
            "url": "http://hl7.org/fhir/us/davinci-deqm/StructureDefinition/extension-criteriaReference",
            "valueString": "sde-postal-code-of-residence"
          } ],
          "reference": "#39d339bd-64c3-46b6-9232-d236db318a2e"
        }
      }, {
        "url": "http://hl7.org/fhir/5.0/StructureDefinition/extension-MeasureReport.supplementalDataElement.reference",
        "valueReference": {
          "extension": [ {
            "url": "http://hl7.org/fhir/us/davinci-deqm/StructureDefinition/extension-criteriaReference",
            "valueString": "sde-age"
          } ],
          "reference": "#a26a22e8-05f6-424b-a096-cf5a5f9ade1e"
        }
      }, {
        "url": "http://hl7.org/fhir/5.0/StructureDefinition/extension-MeasureReport.supplementalDataElement.reference",
        "valueReference": {
          "extension": [ {
            "url": "http://hl7.org/fhir/us/davinci-deqm/StructureDefinition/extension-criteriaReference",
            "valueString": "sde-sex"
          } ],
          "reference": "#7bfa2e8f-debf-4f9d-ada2-bdd19cdf5180"
        }
      } ],
      "status": "complete",
      "type": "individual",
      "measure": "http://hl7.org/fhir/us/chronic-ds/Measure/SeenPatients|0.1.0",
      "subject": {
        "reference": "Patient/b2f6d270-de8b-4418-80fb-d6e9cdb74433"
      },
      "date": "2025-02-26T01:25:44+00:00",
      "period": {
        "start": "2025-01-01T06:00:00+00:00",
        "end": "2026-01-01T07:59:00+00:00"
      },
      "group": [ {
        "id": "group-1",
        "population": [ {
          "id": "initial-population",
          "extension": [ {
            "url": "http://hl7.org/fhir/5.0/StructureDefinition/extension-MeasureReport.population.description",
            "valueString": "Seen patients"
          } ],
          "code": {
            "coding": [ {
              "system": "http://terminology.hl7.org/CodeSystem/measure-population",
              "code": "initial-population",
              "display": "Initial Population"
            } ]
          },
          "count": 1
        } ],
        "stratifier": [ {
          "id": "stratifier-ethnicity",
          "extension": [ {
            "url": "http://hl7.org/fhir/5.0/StructureDefinition/extension-MeasureReport.population.description",
            "valueString": "Ethnicity (CDC Value Set)"
          } ],
          "code": [ {
            "coding": [ {
              "system": "http://loinc.org",
              "code": "54133-4",
              "display": "Ethnicity"
            } ],
            "text": "stratifier-ethnicity"
          } ],
          "stratum": [ {
            "value": {
              "text": "2135-2"
            },
            "population": [ {
              "id": "initial-population",
              "extension": [ {
                "url": "http://hl7.org/fhir/5.0/StructureDefinition/extension-MeasureReport.population.description",
                "valueString": "Seen patients"
              } ],
              "code": {
                "coding": [ {
                  "system": "http://terminology.hl7.org/CodeSystem/measure-population",
                  "code": "initial-population",
                  "display": "Initial Population"
                } ]
              },
              "count": 1
            } ]
          } ]
        }, {
          "id": "stratifier-payer",
          "extension": [ {
            "url": "http://hl7.org/fhir/5.0/StructureDefinition/extension-MeasureReport.population.description",
            "valueString": "Payer"
          } ],
          "code": [ {
            "coding": [ {
              "system": "http://terminology.hl7.org/CodeSystem/coverage-class",
              "code": "plan",
              "display": "Plan"
            } ],
            "text": "stratifier-payer"
          } ]
        }, {
          "id": "stratifier-race",
          "extension": [ {
            "url": "http://hl7.org/fhir/5.0/StructureDefinition/extension-MeasureReport.population.description",
            "valueString": "Race (CDC Value Set)"
          } ],
          "code": [ {
            "coding": [ {
              "system": "http://loinc.org",
              "code": "32624-9",
              "display": "Race"
            } ],
            "text": "stratifier-race"
          } ],
          "stratum": [ {
            "value": {
              "text": "2106-3"
            },
            "population": [ {
              "id": "initial-population",
              "extension": [ {
                "url": "http://hl7.org/fhir/5.0/StructureDefinition/extension-MeasureReport.population.description",
                "valueString": "Seen patients"
              } ],
              "code": {
                "coding": [ {
                  "system": "http://terminology.hl7.org/CodeSystem/measure-population",
                  "code": "initial-population",
                  "display": "Initial Population"
                } ]
              },
              "count": 1
            } ]
          } ]
        }, {
          "id": "stratifier-sex",
          "extension": [ {
            "url": "http://hl7.org/fhir/5.0/StructureDefinition/extension-MeasureReport.population.description",
            "valueString": "Administrative sex"
          } ],
          "code": [ {
            "coding": [ {
              "system": "http://loinc.org",
              "code": "72143-1",
              "display": "Sex [HL7.v3]"
            } ],
            "text": "stratifier-sex"
          } ],
          "stratum": [ {
            "value": {
              "text": "F"
            },
            "population": [ {
              "id": "initial-population",
              "extension": [ {
                "url": "http://hl7.org/fhir/5.0/StructureDefinition/extension-MeasureReport.population.description",
                "valueString": "Seen patients"
              } ],
              "code": {
                "coding": [ {
                  "system": "http://terminology.hl7.org/CodeSystem/measure-population",
                  "code": "initial-population",
                  "display": "Initial Population"
                } ]
              },
              "count": 1
            } ]
          } ]
        }, {
          "id": "stratifier-age-group",
          "extension": [ {
            "url": "http://hl7.org/fhir/5.0/StructureDefinition/extension-MeasureReport.population.description",
            "valueString": "Age Group"
          } ],
          "code": [ {
            "coding": [ {
              "system": "http://loinc.org",
              "code": "46251-5",
              "display": "Age"
            } ],
            "text": "stratifier-age-group"
          } ],
          "stratum": [ {
            "value": {
              "text": "P50Y--P9999Y"
            },
            "population": [ {
              "id": "initial-population",
              "extension": [ {
                "url": "http://hl7.org/fhir/5.0/StructureDefinition/extension-MeasureReport.population.description",
                "valueString": "Seen patients"
              } ],
              "code": {
                "coding": [ {
                  "system": "http://terminology.hl7.org/CodeSystem/measure-population",
                  "code": "initial-population",
                  "display": "Initial Population"
                } ]
              },
              "count": 1
            } ]
          } ]
        }, {
          "id": "stratifier-food-insecurity-risk-status",
          "extension": [ {
            "url": "http://hl7.org/fhir/5.0/StructureDefinition/extension-MeasureReport.population.description",
            "valueString": "Food insecurity risk status"
          } ],
          "code": [ {
            "coding": [ {
              "system": "http://loinc.org",
              "code": "88124-3",
              "display": "Food insecurity risk [HVS]"
            } ],
            "text": "stratifier-food-insecurity-risk-status"
          } ],
          "stratum": [ {
            "value": {
              "coding": [ {
                "system": "http://loinc.org",
                "code": "LA19952-3",
                "display": "At risk"
              } ]
            },
            "population": [ {
              "id": "initial-population",
              "extension": [ {
                "url": "http://hl7.org/fhir/5.0/StructureDefinition/extension-MeasureReport.population.description",
                "valueString": "Seen patients"
              } ],
              "code": {
                "coding": [ {
                  "system": "http://terminology.hl7.org/CodeSystem/measure-population",
                  "code": "initial-population",
                  "display": "Initial Population"
                } ]
              },
              "count": 1
            } ]
          } ]
        } ]
      } ],
      "evaluatedResource": [ {
        "extension": [ {
          "url": "http://hl7.org/fhir/us/davinci-deqm/StructureDefinition/extension-criteriaReference",
          "valueString": "initial-population"
        }, {
          "url": "http://hl7.org/fhir/us/davinci-deqm/StructureDefinition/extension-criteriaReference",
          "valueString": "sde-ethnicity"
        } ],
        "reference": "Patient/b2f6d270-de8b-4418-80fb-d6e9cdb74433"
      }, {
        "extension": [ {
          "url": "http://hl7.org/fhir/us/davinci-deqm/StructureDefinition/extension-criteriaReference",
          "valueString": "initial-population"
        }, {
          "url": "http://hl7.org/fhir/us/davinci-deqm/StructureDefinition/extension-criteriaReference",
          "valueString": "sde-ethnicity"
        } ],
        "reference": "Observation/f5df6309-9016-4e05-bd4c-b66c4d93fdcd"
      }, {
        "extension": [ {
          "url": "http://hl7.org/fhir/us/davinci-deqm/StructureDefinition/extension-criteriaReference",
          "valueString": "initial-population"
        }, {
          "url": "http://hl7.org/fhir/us/davinci-deqm/StructureDefinition/extension-criteriaReference",
          "valueString": "sde-ethnicity"
        } ],
        "reference": "Encounter/1bab8e12-673c-47c0-a750-f3a5f1edf2cb"
      } ]
    }
  } ]
}