{"resourceType":"Bundle","id":"tests-Patient-denomexception-1-CMS2-bundle","type":"transaction","entry":[{"resource":{"resourceType":"Encounter","id":"Encounter-denomexception-1-CMS2","meta":{"profile":["http://hl7.org/fhir/us/qicore/StructureDefinition/qicore-encounter"]},"status":"finished","class":{"system":"http://terminology.hl7.org/CodeSystem/v3-ActCode","code":"IMP","display":"Inpatient Encounter"},"type":[{"coding":[{"system":"http://www.ama-assn.org/go/cpt","version":"2021","code":"99404","display":"Preventive medicine counseling and/or risk factor reduction intervention(s) provided to an individual (separate procedure); approximately 60 minutes"}]}],"subject":{"reference":"Patient/Patient-denomexception-1-CMS2"},"period":{"start":"2024-04-10T16:00:00-07:00","end":"2024-04-10T16:00:00-07:00"}},"request":{"method":"PUT","url":"Encounter/Encounter-denomexception-1-CMS2"}},{"resource":{"resourceType":"Patient","id":"Patient-denomexception-1-CMS2","meta":{"profile":["http://hl7.org/fhir/us/core/StructureDefinition/us-core-patient"]},"extension":[{"url":"http://hl7.org/fhir/us/core/StructureDefinition/us-core-race","extension":[{"url":"ombCategory","valueCoding":{"system":"urn:oid:2.16.840.1.113883.6.238","code":"2106-3","display":"White"}}]},{"url":"http://hl7.org/fhir/us/core/StructureDefinition/us-core-ethnicity","extension":[{"url":"ombCategory","valueCoding":{"system":"urn:oid:2.16.840.1.113883.6.238","code":"2186-5","display":"Not Hispanic or Latino"}}]}],"active":true,"name":[{"use":"official","text":"DOE,COURTNEY","family":"DOE","given":["COURTNEY"]}],"gender":"female","birthDate":"2010-01-24","deceasedBoolean":false},"request":{"method":"PUT","url":"Patient/Patient-denomexception-1-CMS2"}},{"resource":{"resourceType":"Observation","id":"Observation-1-denomexception-1-CMS2","status":"final","code":{"coding":[{"system":"http://loinc.org","code":"73831-0","display":"Adolescent Depression Screening Assessment"}]},"subject":{"reference":"Patient/Patient-denomexception-1-CMS2"},"encounter":{"reference":"Encounter/Encounter-denomexception-1-CMS2"},"effectiveDateTime":"2024-04-10T16:00:00-07:00","component":[{"code":{"coding":[{"system":"http://snomed.info/sct","code":"266721009","display":"Absent response to treatment (situation)"}]},"dataAbsentReason":{"coding":[{"system":"http://terminology.hl7.org/CodeSystem/data-absent-reason","code":"not-performed","display":"Not performed"}]}}]},"request":{"method":"PUT","url":"Observation/Observation-1-denomexception-1-CMS2"}}]}