{"resourceType":"Bundle","id":"tests-Patient-num-2-CMS2-bundle","type":"transaction","entry":[{"resource":{"resourceType":"Encounter","id":"Encounter-num-2-CMS2","meta":{"profile":["http://hl7.org/fhir/us/qicore/StructureDefinition/qicore-encounter"]},"status":"finished","class":{"system":"http://terminology.hl7.org/CodeSystem/v3-ActCode","code":"HH","display":"Home Health"},"type":[{"coding":[{"system":"http://snomed.info/sct","version":"2021-09","code":"14736009","display":"History and physical examination with evaluation and management of patient (procedure)"}]}],"subject":{"reference":"Patient/Patient-num-2-CMS2"},"period":{"start":"2025-03-15T11:00:00-07:00","end":"2025-03-15T13:00:00-07:00"}},"request":{"method":"PUT","url":"Encounter/Encounter-num-2-CMS2"}},{"resource":{"resourceType":"Observation","id":"Observation-num-2-CMS2","status":"final","code":{"coding":[{"system":"http://loinc.org","code":"73832-8","display":"Adult Depression Screening Assessment"}]},"subject":{"reference":"Patient/Patient-num-2-CMS2"},"encounter":{"reference":"Encounter/Encounter-num-2-CMS2"},"effectiveDateTime":"2025-03-15T11:00:00-07:00","valueCodeableConcept":{"coding":[{"system":"http://snomed.info/sct","code":"428181000124104","display":"Depression Screening Positive"}]}},"request":{"method":"PUT","url":"Observation/Observation-num-2-CMS2"}},{"resource":{"resourceType":"Patient","id":"Patient-num-2-CMS2","extension":[{"url":"http://hl7.org/fhir/us/core/StructureDefinition/us-core-race","extension":[{"url":"ombCategory","valueCoding":{"system":"urn:oid:2.16.840.1.113883.6.238","code":"2106-3","display":"White"}}]},{"url":"http://hl7.org/fhir/us/core/StructureDefinition/us-core-ethnicity","extension":[{"url":"ombCategory","valueCoding":{"system":"urn:oid:2.16.840.1.113883.6.238","code":"2186-5","display":"Not Hispanic or Latino"}}]}],"active":true,"name":[{"use":"official","text":"Simpson,Bartholomew","family":"Simpson","given":["Bartholomew"]}],"gender":"male","birthDate":"1986-06-14","deceasedBoolean":false},"request":{"method":"PUT","url":"Patient/Patient-num-2-CMS2"}},{"resource":{"resourceType":"MedicationRequest","id":"MedicationRequest-num-2-CMS2","meta":{"profile":["http://hl7.org/fhir/us/qicore/StructureDefinition/qicore-medicationrequest"]},"status":"active","intent":"order","doNotPerform":false,"medicationCodeableConcept":{"coding":[{"system":"http://www.nlm.nih.gov/research/umls/rxnorm","version":"2022-01","code":"1000054","display":"doxepin hydrochloride 10 MG/ML Oral Solution"}]},"subject":{"reference":"Patient/Patient-num-2-CMS2"},"encounter":{"reference":"Encounter/Encounter-num-2-CMS2"},"authoredOn":"2025-03-16T11:00:00-07:00","requester":{"reference":"Patient/Patient-num-2-CMS2"},"dosageInstruction":[{"timing":{"repeat":{"boundsPeriod":{"start":"2025-03-16T11:00:00-07:00","end":"2025-03-16T11:00:00-07:00"}}}}]},"request":{"method":"PUT","url":"MedicationRequest/MedicationRequest-num-2-CMS2"}}]}