{"resourceType":"Bundle","id":"tests-Patient-num-1-CMS2-bundle","type":"transaction","entry":[{"resource":{"resourceType":"Patient","id":"Patient-num-1-CMS2","extension":[{"url":"http://hl7.org/fhir/us/core/StructureDefinition/us-core-race","extension":[{"url":"ombCategory","valueCoding":{"system":"urn:oid:2.16.840.1.113883.6.238","code":"2106-3","display":"White"}}]},{"url":"http://hl7.org/fhir/us/core/StructureDefinition/us-core-ethnicity","extension":[{"url":"ombCategory","valueCoding":{"system":"urn:oid:2.16.840.1.113883.6.238","code":"2186-5","display":"Not Hispanic or Latino"}}]}],"active":true,"name":[{"use":"official","text":"Griffin,Meg","family":"Griffin","given":["Meg"]}],"gender":"female","birthDate":"2007-11-16","deceasedBoolean":false},"request":{"method":"PUT","url":"Patient/Patient-num-1-CMS2"}},{"resource":{"resourceType":"ServiceRequest","id":"ServiceRequest-num-1-CMS2","meta":{"profile":["http://hl7.org/fhir/us/qicore/StructureDefinition/qicore-servicerequest"]},"status":"completed","intent":"order","doNotPerform":false,"code":{"coding":[{"system":"http://snomed.info/sct","version":"2021-09","code":"183583007","display":"Refer to mental health worker (procedure)"}]},"subject":{"reference":"Patient/Patient-num-1-CMS2"},"authoredOn":"2024-02-21T16:00:00-07:00"},"request":{"method":"PUT","url":"ServiceRequest/ServiceRequest-num-1-CMS2"}},{"resource":{"resourceType":"Encounter","id":"Encounter-num-1-CMS2","meta":{"profile":["http://hl7.org/fhir/us/qicore/StructureDefinition/qicore-encounter"]},"status":"finished","class":{"system":"http://terminology.hl7.org/CodeSystem/v3-ActCode","code":"IMP","display":"Inpatient Encounter"},"type":[{"coding":[{"system":"http://www.ama-assn.org/go/cpt","version":"2021","code":"99404","display":"Preventive medicine counseling and/or risk factor reduction intervention(s) provided to an individual (separate procedure); approximately 60 minutes"}]}],"subject":{"reference":"Patient/Patient-num-1-CMS2"},"period":{"start":"2024-02-19T16:00:00-07:00","end":"2024-02-19T18:00:00-07:00"}},"request":{"method":"PUT","url":"Encounter/Encounter-num-1-CMS2"}},{"resource":{"resourceType":"Observation","id":"Observation-num-1-CMS2","status":"final","code":{"coding":[{"system":"http://loinc.org","code":"73831-0","display":"Adolescent Depression Screening Assessment"}]},"subject":{"reference":"Patient/Patient-num-1-CMS2"},"encounter":{"reference":"Encounter/Encounter-num-1-CMS2"},"effectiveDateTime":"2024-02-19T16:30:00-07:00","valueCodeableConcept":{"coding":[{"system":"http://snomed.info/sct","code":"428181000124104","display":"Depression Screening Positive"}]}},"request":{"method":"PUT","url":"Observation/Observation-num-1-CMS2"}}]}