{"resourceType":"Bundle","id":"tests-Patient-num-4-CMS2-bundle","type":"transaction","entry":[{"resource":{"resourceType":"Observation","id":"Observation-num-4-CMS2","status":"final","code":{"coding":[{"system":"http://loinc.org","code":"73831-0","display":"Adolescent Depression Screening Assessment"}]},"subject":{"reference":"Patient/Patient-num-4-CMS2"},"encounter":{"reference":"Encounter/Encounter-num-4-CMS2"},"effectiveDateTime":"2025-03-11T16:00:00-07:00","valueCodeableConcept":{"coding":[{"system":"http://snomed.info/sct","code":"428171000124102","display":"Depression Screening Negative"}]}},"request":{"method":"PUT","url":"Observation/Observation-num-4-CMS2"}},{"resource":{"resourceType":"Encounter","id":"Encounter-num-4-CMS2","status":"finished","class":{"system":"http://terminology.hl7.org/CodeSystem/v3-ActCode","code":"HH","display":"Home Health"},"type":[{"coding":[{"system":"http://www.ama-assn.org/go/cpt","version":"2021","code":"90834","display":"Psychotherapy, 45 minutes with patient"}]}],"subject":{"reference":"Patient/Patient-num-4-CMS2"},"period":{"start":"2025-03-11T16:00:00-07:00","end":"2025-03-11T18:00:00-07:00"}},"request":{"method":"PUT","url":"Encounter/Encounter-num-4-CMS2"}},{"resource":{"resourceType":"Patient","id":"Patient-num-4-CMS2","extension":[{"url":"http://hl7.org/fhir/us/core/StructureDefinition/us-core-race","extension":[{"url":"ombCategory","valueCoding":{"system":"urn:oid:2.16.840.1.113883.6.238","code":"2106-3","display":"White"}}]},{"url":"http://hl7.org/fhir/us/core/StructureDefinition/us-core-ethnicity","extension":[{"url":"ombCategory","valueCoding":{"system":"urn:oid:2.16.840.1.113883.6.238","code":"2186-5","display":"Not Hispanic or Latino"}}]}],"active":true,"name":[{"use":"official","text":"Griffin,Lisa","family":"Griffin","given":["Lisa"]}],"gender":"female","birthDate":"2009-11-04","deceasedBoolean":false},"request":{"method":"PUT","url":"Patient/Patient-num-4-CMS2"}}]}