{"resourceType":"Bundle","id":"tests-Patient-denomexception-2-CMS2-bundle","type":"transaction","entry":[{"resource":{"resourceType":"Observation","id":"Observation-denomexception-2-CMS2","extension":[{"url":"http://hl7.org/fhir/us/qicore/StructureDefinition/qicore-notDoneReason","valueCodeableConcept":{"coding":[{"system":"http://snomed.info/sct","version":"2021-09","code":"720834000","display":"Depression Screening Declined"}]}}],"modifierExtension":[{"url":"http://hl7.org/fhir/us/qicore/StructureDefinition/qicore-notDone","valueBoolean":true}],"status":"final","code":{"coding":[{"system":"http://loinc.org","code":"73832-8","display":"Adult Depression Screening Assessment"}]},"subject":{"reference":"Patient/Patient-denomexception-2-CMS2"},"encounter":{"reference":"Encounter/Encounter-denomexception-2-CMS2"},"effectiveDateTime":"2025-01-10T16:00:00-07:00"},"request":{"method":"PUT","url":"Observation/Observation-denomexception-2-CMS2"}},{"resource":{"resourceType":"Patient","id":"Patient-denomexception-2-CMS2","extension":[{"url":"http://hl7.org/fhir/us/core/StructureDefinition/us-core-race","extension":[{"url":"ombCategory","valueCoding":{"system":"urn:oid:2.16.840.1.113883.6.238","code":"2106-3","display":"White"}}]},{"url":"http://hl7.org/fhir/us/core/StructureDefinition/us-core-ethnicity","extension":[{"url":"ombCategory","valueCoding":{"system":"urn:oid:2.16.840.1.113883.6.238","code":"2186-5","display":"Not Hispanic or Latino"}}]}],"active":true,"name":[{"use":"official","text":"Simpson,Marge","family":"Simpson","given":["Marge"]}],"gender":"female","birthDate":"1965-06-30","deceasedBoolean":false},"request":{"method":"PUT","url":"Patient/Patient-denomexception-2-CMS2"}},{"resource":{"resourceType":"Encounter","id":"Encounter-denomexception-2-CMS2","meta":{"profile":["http://hl7.org/fhir/us/qicore/StructureDefinition/qicore-encounter"]},"status":"finished","class":{"system":"http://terminology.hl7.org/CodeSystem/v3-ActCode","code":"IMP","display":"Inpatient Encounter"},"type":[{"coding":[{"system":"http://snomed.info/sct","version":"2021-09","code":"270427003","display":"Patient-initiated encounter (procedure)"}]}],"subject":{"reference":"Patient/Patient-denomexception-2-CMS2"},"period":{"start":"2025-01-10T16:00:00-07:00","end":"2025-01-10T16:00:00-07:00"}},"request":{"method":"PUT","url":"Encounter/Encounter-denomexception-2-CMS2"}}]}