{"resourceType":"Bundle","id":"tests-Patient-num-3-CMS2-bundle","type":"transaction","entry":[{"resource":{"resourceType":"Encounter","id":"Encounter-num-3-CMS2","status":"finished","class":{"system":"http://terminology.hl7.org/CodeSystem/v3-ActCode","code":"IMP","display":"Inpatient Encounter"},"type":[{"coding":[{"system":"http://snomed.info/sct","version":"2021-09","code":"424203006","display":"Physical therapy education, guidance and counseling (procedure)"}]}],"subject":{"reference":"Patient/Patient-num-3-CMS2"},"period":{"start":"2025-05-09T12:00:00-07:00","end":"2025-05-09T14:00:00-07:00"}},"request":{"method":"PUT","url":"Encounter/Encounter-num-3-CMS2"}},{"resource":{"resourceType":"Observation","id":"Observation-num-3-CMS2","status":"final","code":{"coding":[{"system":"http://loinc.org","code":"73832-8","display":"Adult Depression Screening Assessment"}]},"subject":{"reference":"Patient/Patient-num-3-CMS2"},"encounter":{"reference":"Encounter/Encounter-num-3-CMS2"},"effectiveDateTime":"2025-05-09T12:45:00-07:00","valueCodeableConcept":{"coding":[{"system":"http://snomed.info/sct","code":"428181000124104","display":"Depression Screening Positive"}]}},"request":{"method":"PUT","url":"Observation/Observation-num-3-CMS2"}},{"resource":{"resourceType":"Procedure","id":"Procedure-num-3-CMS2","status":"completed","code":{"coding":[{"system":"http://snomed.info/sct","version":"2021-09","code":"18512000","display":"Individual psychotherapy (regime/therapy)"}]},"subject":{"reference":"Patient/Patient-num-3-CMS2"},"encounter":{"reference":"Encounter/Encounter-num-3-CMS2"},"performedDateTime":"2025-05-09T15:45:00-07:00"},"request":{"method":"PUT","url":"Procedure/Procedure-num-3-CMS2"}},{"resource":{"resourceType":"Patient","id":"Patient-num-3-CMS2","extension":[{"url":"http://hl7.org/fhir/us/core/StructureDefinition/us-core-race","extension":[{"url":"ombCategory","valueCoding":{"system":"urn:oid:2.16.840.1.113883.6.238","code":"2106-3","display":"White"}}]},{"url":"http://hl7.org/fhir/us/core/StructureDefinition/us-core-ethnicity","extension":[{"url":"ombCategory","valueCoding":{"system":"urn:oid:2.16.840.1.113883.6.238","code":"2186-5","display":"Not Hispanic or Latino"}}]}],"active":true,"name":[{"use":"official","text":"Doe,Jessica","family":"Doe","given":["Jessica"]}],"gender":"female","birthDate":"1982-12-01","deceasedBoolean":false},"request":{"method":"PUT","url":"Patient/Patient-num-3-CMS2"}}]}